subjID	version	block	trial_index	time_elapsed	trial_type	internal_node_id	stim	key_press	rt	outcome	valued	devalued	cor_dir	isdevalued	chose	score
anna20200527a	.93-20200528-longerDD	1.ID_0	1	82810	html-keyboard-response	0.0-1.0	bananas	39	2084.5850000623614	apple			Right	false	Right	1
anna20200527a	.93-20200528-longerDD	1.ID_0	3	89382	html-keyboard-response	0.0-3.0	lemon	37	4522.925000172108	orange			Right	false	Left	0
anna20200527a	.93-20200528-longerDD	1.ID_0	5	93293	html-keyboard-response	0.0-5.0	pear	37	1863.9700000640005	strawberry			Left	false	Left	1
anna20200527a	.93-20200528-longerDD	1.ID_0	7	99439	html-keyboard-response	0.0-7.0	kiwi	39	4107.619999907911	grape			Left	false	Right	0
anna20200527a	.93-20200528-longerDD	1.ID_0	9	102449	html-keyboard-response	0.0-9.0	lemon	37	993.1699999142438	orange			Right	false	Left	0
anna20200527a	.93-20200528-longerDD	1.ID_0	11	105958	html-keyboard-response	0.0-11.0	pear	37	1483.714999863878	strawberry			Left	false	Left	1
anna20200527a	.93-20200528-longerDD	1.ID_0	13	109211	html-keyboard-response	0.0-13.0	pineapple	37	1232.3150001466274	coconut			Left	false	Left	1
anna20200527a	.93-20200528-longerDD	1.ID_0	15	113646	html-keyboard-response	0.0-15.0	bananas	39	2402.0950000267476	apple			Right	false	Right	1
anna20200527a	.93-20200528-longerDD	1.ID_0	17	116601	html-keyboard-response	0.0-17.0	melon	37	923.8249999471009	cherries			Right	false	Left	0
anna20200527a	.93-20200528-longerDD	1.ID_0	19	120278	html-keyboard-response	0.0-19.0	kiwi	39	1645.0099998619407	grape			Left	false	Right	0
anna20200527a	.93-20200528-longerDD	1.ID_0	21	123557	html-keyboard-response	0.0-21.0	pineapple	37	1251.624999800697	coconut			Left	false	Left	1
anna20200527a	.93-20200528-longerDD	1.ID_0	23	126629	html-keyboard-response	0.0-23.0	melon	37	1051.4400000683963	cherries			Right	false	Left	0
anna20200527a	.93-20200528-longerDD	1.ID_1	25	129532	html-keyboard-response	0.0-25.0	bananas	39	876.8050000071526	apple			Right	false	Right	1
anna20200527a	.93-20200528-longerDD	1.ID_1	27	133090	html-keyboard-response	0.0-27.0	melon	39	1530.2049999590963	cherries			Right	false	Right	1
anna20200527a	.93-20200528-longerDD	1.ID_1	29	136042	html-keyboard-response	0.0-29.0	kiwi	37	934.7299998626113	grape			Left	false	Left	1
anna20200527a	.93-20200528-longerDD	1.ID_1	31	139137	html-keyboard-response	0.0-31.0	pineapple	39	1065.3000001329929	coconut			Left	false	Right	0
anna20200527a	.93-20200528-longerDD	1.ID_1	33	142102	html-keyboard-response	0.0-33.0	lemon	37	939.1649998724461	orange			Right	false	Left	0
anna20200527a	.93-20200528-longerDD	1.ID_1	35	145090	html-keyboard-response	0.0-35.0	pineapple	37	971.5399998240173	coconut			Left	false	Left	1
anna20200527a	.93-20200528-longerDD	1.ID_1	37	147843	html-keyboard-response	0.0-37.0	bananas	39	734.6049998886883	apple			Right	false	Right	1
anna20200527a	.93-20200528-longerDD	1.ID_1	39	151301	html-keyboard-response	0.0-39.0	pear	39	1437.2950000688434	strawberry			Left	false	Right	0
anna20200527a	.93-20200528-longerDD	1.ID_1	41	154155	html-keyboard-response	0.0-41.0	melon	37	824.9699999578297	cherries			Right	false	Left	0
anna20200527a	.93-20200528-longerDD	1.ID_1	43	158895	html-keyboard-response	0.0-43.0	pear	37	2710.969999898225	strawberry			Left	false	Left	1
anna20200527a	.93-20200528-longerDD	1.ID_1	45	161879	html-keyboard-response	0.0-45.0	lemon	39	952.6299999561161	orange			Right	false	Right	1
anna20200527a	.93-20200528-longerDD	1.ID_1	47	165084	html-keyboard-response	0.0-47.0	kiwi	37	1170.6399999093264	grape			Left	false	Left	1
anna20200527a	.93-20200528-longerDD	1.ID_2	49	168318	html-keyboard-response	0.0-49.0	bananas	39	1201.1100000236183	apple			Right	false	Right	1
anna20200527a	.93-20200528-longerDD	1.ID_2	51	171262	html-keyboard-response	0.0-51.0	lemon	37	918.1399999652058	orange			Right	false	Left	0
anna20200527a	.93-20200528-longerDD	1.ID_2	53	174109	html-keyboard-response	0.0-53.0	bananas	39	816.4049999322742	apple			Right	false	Right	1
anna20200527a	.93-20200528-longerDD	1.ID_2	55	176735	html-keyboard-response	0.0-55.0	lemon	39	599.0249998867512	orange			Right	false	Right	1
anna20200527a	.93-20200528-longerDD	1.ID_2	57	181883	html-keyboard-response	0.0-57.0	pineapple	37	3119.205000111833	coconut			Left	false	Left	1
anna20200527a	.93-20200528-longerDD	1.ID_2	59	185358	html-keyboard-response	0.0-59.0	pear	37	1440.5400000978261	strawberry			Left	false	Left	1
anna20200527a	.93-20200528-longerDD	1.ID_2	61	189525	html-keyboard-response	0.0-61.0	kiwi	37	2132.7349999919534	grape			Left	false	Left	1
anna20200527a	.93-20200528-longerDD	1.ID_2	63	192483	html-keyboard-response	0.0-63.0	pear	37	934.3799999915063	strawberry			Left	false	Left	1
anna20200527a	.93-20200528-longerDD	1.ID_2	65	195227	html-keyboard-response	0.0-65.0	kiwi	37	725.550000090152	grape			Left	false	Left	1
anna20200527a	.93-20200528-longerDD	1.ID_2	67	198544	html-keyboard-response	0.0-67.0	pineapple	37	1299.7300000861287	coconut			Left	false	Left	1
anna20200527a	.93-20200528-longerDD	1.ID_2	69	202542	html-keyboard-response	0.0-69.0	melon	39	1948.405000148341	cherries			Right	false	Right	1
anna20200527a	.93-20200528-longerDD	1.ID_2	71	205551	html-keyboard-response	0.0-71.0	melon	39	978.1299999449402	cherries			Right	false	Right	1
anna20200527a	.93-20200528-longerDD	1.ID_3	73	208632	html-keyboard-response	0.0-73.0	pineapple	37	1047.7299999911338	coconut			Left	false	Left	1
anna20200527a	.93-20200528-longerDD	1.ID_3	75	211792	html-keyboard-response	0.0-75.0	bananas	39	1143.5100000817329	apple			Right	false	Right	1
anna20200527a	.93-20200528-longerDD	1.ID_3	77	215992	html-keyboard-response	0.0-77.0	pear	37	2165.8050001133233	strawberry			Left	false	Left	1
anna20200527a	.93-20200528-longerDD	1.ID_3	79	218778	html-keyboard-response	0.0-79.0	bananas	39	754.4299999717623	apple			Right	false	Right	1
anna20200527a	.93-20200528-longerDD	1.ID_3	81	223601	html-keyboard-response	0.0-81.0	kiwi	37	2795.000000158325	grape			Left	false	Left	1
anna20200527a	.93-20200528-longerDD	1.ID_3	83	226414	html-keyboard-response	0.0-83.0	kiwi	37	793.6749998480082	grape			Left	false	Left	1
anna20200527a	.93-20200528-longerDD	1.ID_3	85	229885	html-keyboard-response	0.0-85.0	lemon	39	1445.9599999245256	orange			Right	false	Right	1
anna20200527a	.93-20200528-longerDD	1.ID_3	87	234084	html-keyboard-response	0.0-87.0	melon	37	2153.7150000222027	cherries			Right	false	Left	0
anna20200527a	.93-20200528-longerDD	1.ID_3	89	237103	html-keyboard-response	0.0-89.0	pineapple	37	989.9450000375509	coconut			Left	false	Left	1
anna20200527a	.93-20200528-longerDD	1.ID_3	91	242502	html-keyboard-response	0.0-91.0	pear	37	3382.169999880716	strawberry			Left	false	Left	1
anna20200527a	.93-20200528-longerDD	1.ID_3	93	246061	html-keyboard-response	0.0-93.0	melon	39	1541.5400001220405	cherries			Right	false	Right	1
anna20200527a	.93-20200528-longerDD	1.ID_3	95	249421	html-keyboard-response	0.0-95.0	lemon	39	1327.4650000967085	orange			Right	false	Right	1
anna20200527a	.93-20200528-longerDD	1.ID_4	97	253015	html-keyboard-response	0.0-97.0	pear	37	1560.8699999284	strawberry			Left	false	Left	1
anna20200527a	.93-20200528-longerDD	1.ID_4	99	257072	html-keyboard-response	0.0-99.0	bananas	39	2021.055000135675	apple			Right	false	Right	1
anna20200527a	.93-20200528-longerDD	1.ID_4	101	260379	html-keyboard-response	0.0-101.0	pineapple	37	1285.0200000684708	coconut			Left	false	Left	1
anna20200527a	.93-20200528-longerDD	1.ID_4	103	263927	html-keyboard-response	0.0-103.0	bananas	39	1518.8700000289828	apple			Right	false	Right	1
anna20200527a	.93-20200528-longerDD	1.ID_4	105	267276	html-keyboard-response	0.0-105.0	kiwi	37	1331.2750000040978	grape			Left	false	Left	1
anna20200527a	.93-20200528-longerDD	1.ID_4	107	270097	html-keyboard-response	0.0-107.0	kiwi	37	787.7150001004338	grape			Left	false	Left	1
anna20200527a	.93-20200528-longerDD	1.ID_4	109	273218	html-keyboard-response	0.0-109.0	pear	37	1088.749999878928	strawberry			Left	false	Left	1
anna20200527a	.93-20200528-longerDD	1.ID_4	111	277362	html-keyboard-response	0.0-111.0	melon	39	2114.575000014156	cherries			Right	false	Right	1
anna20200527a	.93-20200528-longerDD	1.ID_4	113	280742	html-keyboard-response	0.0-113.0	pineapple	37	1358.5550000425428	coconut			Left	false	Left	1
anna20200527a	.93-20200528-longerDD	1.ID_4	115	283721	html-keyboard-response	0.0-115.0	lemon	39	953.9900000672787	orange			Right	false	Right	1
anna20200527a	.93-20200528-longerDD	1.ID_4	117	286539	html-keyboard-response	0.0-117.0	lemon	39	782.3349998798221	orange			Right	false	Right	1
anna20200527a	.93-20200528-longerDD	1.ID_4	119	292608	html-keyboard-response	0.0-119.0	melon	39	4017.9899998474866	cherries			Right	false	Right	1
anna20200527a	.93-20200528-longerDD	1.ID_5	121	295368	html-keyboard-response	0.0-121.0	pear	37	727.1199999377131	strawberry			Left	false	Left	1
anna20200527a	.93-20200528-longerDD	1.ID_5	123	301345	html-keyboard-response	0.0-123.0	kiwi	37	3945.1150000095367	grape			Left	false	Left	1
anna20200527a	.93-20200528-longerDD	1.ID_5	125	304105	html-keyboard-response	0.0-125.0	kiwi	37	722.4000000860542	grape			Left	false	Left	1
anna20200527a	.93-20200528-longerDD	1.ID_5	127	311023	html-keyboard-response	0.0-127.0	pineapple	37	4889.574999921024	coconut			Left	false	Left	1
anna20200527a	.93-20200528-longerDD	1.ID_5	129	314087	html-keyboard-response	0.0-129.0	bananas	39	1040.5100001953542	apple			Right	false	Right	1
anna20200527a	.93-20200528-longerDD	1.ID_5	131	317053	html-keyboard-response	0.0-131.0	bananas	39	929.8499999567866	apple			Right	false	Right	1
anna20200527a	.93-20200528-longerDD	1.ID_5	133	320247	html-keyboard-response	0.0-133.0	pear	37	1170.0999999884516	strawberry			Left	false	Left	1
anna20200527a	.93-20200528-longerDD	1.ID_5	135	323296	html-keyboard-response	0.0-135.0	melon	39	1021.3150000199676	cherries			Right	false	Right	1
anna20200527a	.93-20200528-longerDD	1.ID_5	137	327237	html-keyboard-response	0.0-137.0	pineapple	37	1923.7949999514967	coconut			Left	false	Left	1
anna20200527a	.93-20200528-longerDD	1.ID_5	139	330145	html-keyboard-response	0.0-139.0	lemon	39	869.5149999111891	orange			Right	false	Right	1
anna20200527a	.93-20200528-longerDD	1.ID_5	141	336024	html-keyboard-response	0.0-141.0	melon	39	3858.860000036657	cherries			Right	false	Right	1
anna20200527a	.93-20200528-longerDD	1.ID_5	143	338787	html-keyboard-response	0.0-143.0	lemon	39	714.7249998524785	orange			Right	false	Right	1
anna20200527a	.93-20200528-longerDD	1.ID_6	145	341607	html-keyboard-response	0.0-145.0	kiwi	37	794.3750000558794	grape			Left	false	Left	1
anna20200527a	.93-20200528-longerDD	1.ID_6	147	344535	html-keyboard-response	0.0-147.0	bananas	39	893.9000000245869	apple			Right	false	Right	1
anna20200527a	.93-20200528-longerDD	1.ID_6	149	347513	html-keyboard-response	0.0-149.0	lemon	39	940.6600000802428	orange			Right	false	Right	1
anna20200527a	.93-20200528-longerDD	1.ID_6	151	350503	html-keyboard-response	0.0-151.0	bananas	39	960.0050000008196	apple			Right	false	Right	1
anna20200527a	.93-20200528-longerDD	1.ID_6	153	353402	html-keyboard-response	0.0-153.0	pineapple	37	880.1750000566244	coconut			Left	false	Left	1
anna20200527a	.93-20200528-longerDD	1.ID_6	155	356307	html-keyboard-response	0.0-155.0	pear	37	869.2350001074374	strawberry			Left	false	Left	1
anna20200527a	.93-20200528-longerDD	1.ID_6	157	359933	html-keyboard-response	0.0-157.0	melon	39	1578.0799998901784	cherries			Right	false	Right	1
anna20200527a	.93-20200528-longerDD	1.ID_6	159	363098	html-keyboard-response	0.0-159.0	lemon	39	1128.759999992326	orange			Right	false	Right	1
anna20200527a	.93-20200528-longerDD	1.ID_6	161	365964	html-keyboard-response	0.0-161.0	pear	37	831.6699999850243	strawberry			Left	false	Left	1
anna20200527a	.93-20200528-longerDD	1.ID_6	163	368794	html-keyboard-response	0.0-163.0	melon	39	788.3949999231845	cherries			Right	false	Right	1
anna20200527a	.93-20200528-longerDD	1.ID_6	165	374609	html-keyboard-response	0.0-165.0	pineapple	37	3771.334999939427	coconut			Left	false	Left	1
anna20200527a	.93-20200528-longerDD	1.ID_6	167	379718	html-keyboard-response	0.0-167.0	kiwi	37	3091.499999864027	grape			Left	false	Left	1
anna20200527a	.93-20200528-longerDD	1.ID_7	169	382691	html-keyboard-response	0.0-169.0	pear	37	951.3449999503791	strawberry			Left	false	Left	1
anna20200527a	.93-20200528-longerDD	1.ID_7	171	385554	html-keyboard-response	0.0-171.0	kiwi	37	843.2549999561161	grape			Left	false	Left	1
anna20200527a	.93-20200528-longerDD	1.ID_7	173	388968	html-keyboard-response	0.0-173.0	melon	39	1374.5500000659376	cherries			Right	false	Right	1
anna20200527a	.93-20200528-longerDD	1.ID_7	175	393148	html-keyboard-response	0.0-175.0	pineapple	37	2142.3599999397993	coconut			Left	false	Left	1
anna20200527a	.93-20200528-longerDD	1.ID_7	177	397505	html-keyboard-response	0.0-177.0	pear	37	2309.400000143796	strawberry			Left	false	Left	1
anna20200527a	.93-20200528-longerDD	1.ID_7	179	400600	html-keyboard-response	0.0-179.0	melon	39	1074.6949999593198	cherries			Right	false	Right	1
anna20200527a	.93-20200528-longerDD	1.ID_7	181	403408	html-keyboard-response	0.0-181.0	bananas	39	772.6999998558313	apple			Right	false	Right	1
anna20200527a	.93-20200528-longerDD	1.ID_7	183	406084	html-keyboard-response	0.0-183.0	bananas	39	638.1350001320243	apple			Right	false	Right	1
anna20200527a	.93-20200528-longerDD	1.ID_7	185	408742	html-keyboard-response	0.0-185.0	pineapple	39	630.5500001180917	coconut			Left	false	Right	0
anna20200527a	.93-20200528-longerDD	1.ID_7	187	411820	html-keyboard-response	0.0-187.0	lemon	39	1034.2900000978261	orange			Right	false	Right	1
anna20200527a	.93-20200528-longerDD	1.ID_7	189	414927	html-keyboard-response	0.0-189.0	kiwi	37	1067.839999916032	grape			Left	false	Left	1
anna20200527a	.93-20200528-longerDD	1.ID_7	191	417968	html-keyboard-response	0.0-191.0	lemon	39	1023.0000000447035	orange			Right	false	Right	1
anna20200527a	.93-20200528-longerDD	2.OD	194	479286	html-keyboard-response	0.0-194.0		39	8212.004999862984		apple	coconut			Right	1
anna20200527a	.93-20200528-longerDD	2.OD	195	481790	html-keyboard-response	0.0-195.0		39	1495.2799999155104		apple	coconut			Right	1
anna20200527a	.93-20200528-longerDD	2.OD	196	487112	html-keyboard-response	0.0-196.0		37	4312.159999972209		grape	cherries			Left	1
anna20200527a	.93-20200528-longerDD	2.OD	197	489713	html-keyboard-response	0.0-197.0		37	1589.2199999652803		coconut	cherries			Left	1
anna20200527a	.93-20200528-longerDD	2.OD	198	492295	html-keyboard-response	0.0-198.0		37	1569.690000033006		cherries	strawberry			Left	0
anna20200527a	.93-20200528-longerDD	2.OD	199	494964	html-keyboard-response	0.0-199.0		37	1657.1800000965595		strawberry	apple			Left	1
anna20200527a	.93-20200528-longerDD	2.OD	200	497234	html-keyboard-response	0.0-200.0		37	1259.370000101626		strawberry	cherries			Left	1
anna20200527a	.93-20200528-longerDD	2.OD	201	500868	html-keyboard-response	0.0-201.0		37	2628.610000014305		grape	orange			Left	1
anna20200527a	.93-20200528-longerDD	2.OD	202	502913	html-keyboard-response	0.0-202.0		39	1037.2349999379367		apple	strawberry			Right	1
anna20200527a	.93-20200528-longerDD	2.OD	203	504715	html-keyboard-response	0.0-203.0		39	792.3149999696761		apple	strawberry			Right	1
anna20200527a	.93-20200528-longerDD	2.OD	204	507205	html-keyboard-response	0.0-204.0		37	1482.1550000924617		coconut	orange			Left	1
anna20200527a	.93-20200528-longerDD	2.OD	205	509438	html-keyboard-response	0.0-205.0		39	1220.8400000818074		cherries	grape			Right	1
anna20200527a	.93-20200528-longerDD	2.OD	206	512105	html-keyboard-response	0.0-206.0		37	1657.0150000043213		grape	apple			Left	1
anna20200527a	.93-20200528-longerDD	2.OD	207	518277	html-keyboard-response	0.0-207.0		37	5160.110000055283		coconut	apple			Left	1
anna20200527a	.93-20200528-longerDD	2.OD	208	520407	html-keyboard-response	0.0-208.0		37	1101.059999782592		grape	apple			Left	1
anna20200527a	.93-20200528-longerDD	2.OD	209	522555	html-keyboard-response	0.0-209.0		39	1138.560000108555		orange	coconut			Right	1
anna20200527a	.93-20200528-longerDD	2.OD	210	524336	html-keyboard-response	0.0-210.0		39	776.9449998158962		orange	grape			Right	1
anna20200527a	.93-20200528-longerDD	2.OD	211	526250	html-keyboard-response	0.0-211.0		39	905.6400000117719		orange	grape			Right	1
anna20200527a	.93-20200528-longerDD	2.OD	212	528279	html-keyboard-response	0.0-212.0		37	1020.1900000683963		strawberry	apple			Left	1
anna20200527a	.93-20200528-longerDD	2.OD	213	530649	html-keyboard-response	0.0-213.0		37	1359.954999992624		coconut	orange			Left	1
anna20200527a	.93-20200528-longerDD	2.OD	214	532707	html-keyboard-response	0.0-214.0		37	1050.1349999103695		coconut	orange			Left	1
anna20200527a	.93-20200528-longerDD	2.OD	215	534542	html-keyboard-response	0.0-215.0		39	829.1650000028312		orange	strawberry			Right	1
anna20200527a	.93-20200528-longerDD	2.OD	216	536434	html-keyboard-response	0.0-216.0		39	884.7050000913441		cherries	strawberry			Right	1
anna20200527a	.93-20200528-longerDD	2.OD	217	538456	html-keyboard-response	0.0-217.0		39	1013.5900001041591		orange	strawberry			Right	1
anna20200527a	.93-20200528-longerDD	2.OD	218	540407	html-keyboard-response	0.0-218.0		39	945.7849999889731		cherries	grape			Right	1
anna20200527a	.93-20200528-longerDD	2.OD	219	542255	html-keyboard-response	0.0-219.0		39	839.0699999872595		cherries	coconut			Right	1
anna20200527a	.93-20200528-longerDD	2.OD	220	544141	html-keyboard-response	0.0-220.0		39	875.4950000438839		orange	grape			Right	1
anna20200527a	.93-20200528-longerDD	2.OD	221	547523	html-keyboard-response	0.0-221.0		37	2368.8449999317527		coconut	cherries			Left	1
anna20200527a	.93-20200528-longerDD	2.OD	222	552701	html-keyboard-response	0.0-222.0		37	4168.240000028163		strawberry	orange			Left	1
anna20200527a	.93-20200528-longerDD	2.OD	223	555265	html-keyboard-response	0.0-223.0		37	1553.0600000638515		grape	apple			Left	1
anna20200527a	.93-20200528-longerDD	2.OD	224	557904	html-keyboard-response	0.0-224.0		37	1628.444999922067		strawberry	orange			Left	1
anna20200527a	.93-20200528-longerDD	2.OD	225	560619	html-keyboard-response	0.0-225.0		37	1705.2899999544024		strawberry	cherries			Left	1
anna20200527a	.93-20200528-longerDD	2.OD	226	562891	html-keyboard-response	0.0-226.0		37	1261.604999890551		coconut	apple			Left	1
anna20200527a	.93-20200528-longerDD	2.OD	227	564675	html-keyboard-response	0.0-227.0		39	775.2200001850724		cherries	grape			Right	1
anna20200527a	.93-20200528-longerDD	2.OD	228	566540	html-keyboard-response	0.0-228.0		37	855.5250000208616		grape	apple			Left	1
anna20200527a	.93-20200528-longerDD	2.OD	229	568411	html-keyboard-response	0.0-229.0		37	864.9450000375509		coconut	cherries			Left	1
anna20200527a	.93-20200528-longerDD	3.SOA_0	233	617721	html-keyboard-response	0.0-233.0	lemon			orange			Right	false	None	0
anna20200527a	.93-20200528-longerDD	3.SOA_0	234	619613	html-keyboard-response	0.0-234.0	melon	39	879.359999904409	cherries			Right	false	Right	1
anna20200527a	.93-20200528-longerDD	3.SOA_0	235	621351	html-keyboard-response	0.0-235.0	bananas	39	713.8350000604987	apple			None	true	Right	-1
anna20200527a	.93-20200528-longerDD	3.SOA_0	236	623369	html-keyboard-response	0.0-236.0	bananas	37	990.2200000360608	apple			None	true	Left	0
anna20200527a	.93-20200528-longerDD	3.SOA_0	237	625392	html-keyboard-response	0.0-237.0	pear			strawberry			Left	false	None	0
anna20200527a	.93-20200528-longerDD	3.SOA_0	238	627041	html-keyboard-response	0.0-238.0	pear	37	622.9699999094009	strawberry			Left	false	Left	1
anna20200527a	.93-20200528-longerDD	3.SOA_0	239	628741	html-keyboard-response	0.0-239.0	pineapple	37	664.3600000534207	coconut			None	true	Left	-1
anna20200527a	.93-20200528-longerDD	3.SOA_0	240	630626	html-keyboard-response	0.0-240.0	kiwi	37	868.6449998058379	grape			Left	false	Left	1
anna20200527a	.93-20200528-longerDD	3.SOA_0	241	632119	html-keyboard-response	0.0-241.0	kiwi	37	471.87000000849366	grape			Left	false	Left	1
anna20200527a	.93-20200528-longerDD	3.SOA_0	242	634151	html-keyboard-response	0.0-242.0	pineapple			coconut			None	true	None	0
anna20200527a	.93-20200528-longerDD	3.SOA_0	243	636166	html-keyboard-response	0.0-243.0	melon			cherries			Right	false	None	0
anna20200527a	.93-20200528-longerDD	3.SOA_0	244	637976	html-keyboard-response	0.0-244.0	lemon	39	766.8399999383837	orange			Right	false	Right	1
anna20200527a	.93-20200528-longerDD	3.SOA_1	247	646543	html-keyboard-response	0.0-247.0	lemon			orange			None	true	None	0
anna20200527a	.93-20200528-longerDD	3.SOA_1	248	648224	html-keyboard-response	0.0-248.0	pear	37	633.8499998673797	strawberry			Left	false	Left	1
anna20200527a	.93-20200528-longerDD	3.SOA_1	249	650060	html-keyboard-response	0.0-249.0	bananas	39	803.2499998807907	apple			Right	false	Right	1
anna20200527a	.93-20200528-longerDD	3.SOA_1	250	651805	html-keyboard-response	0.0-250.0	kiwi	37	711.4699999801815	grape			None	true	Left	-1
anna20200527a	.93-20200528-longerDD	3.SOA_1	251	653679	html-keyboard-response	0.0-251.0	pineapple	37	859.6350001171231	coconut			Left	false	Left	1
anna20200527a	.93-20200528-longerDD	3.SOA_1	252	655701	html-keyboard-response	0.0-252.0	pear			strawberry			Left	false	None	0
anna20200527a	.93-20200528-longerDD	3.SOA_1	253	657462	html-keyboard-response	0.0-253.0	pineapple	37	746.5800000354648	coconut			Left	false	Left	1
anna20200527a	.93-20200528-longerDD	3.SOA_1	254	659198	html-keyboard-response	0.0-254.0	kiwi	37	697.1749998629093	grape			None	true	Left	-1
anna20200527a	.93-20200528-longerDD	3.SOA_1	255	660933	html-keyboard-response	0.0-255.0	bananas	39	708.2350000273436	apple			Right	false	Right	1
anna20200527a	.93-20200528-longerDD	3.SOA_1	256	662508	html-keyboard-response	0.0-256.0	lemon	39	560.0700001232326	orange			None	true	Right	-1
anna20200527a	.93-20200528-longerDD	3.SOA_1	257	664326	html-keyboard-response	0.0-257.0	melon	37	788.0549998953938	cherries			Right	false	Left	0
anna20200527a	.93-20200528-longerDD	3.SOA_1	258	665970	html-keyboard-response	0.0-258.0	melon	39	601.4050000812858	cherries			Right	false	Right	1
anna20200527a	.93-20200528-longerDD	3.SOA_2	261	674480	html-keyboard-response	0.0-261.0	kiwi	39	955.1750000100583	grape			Left	false	Right	0
anna20200527a	.93-20200528-longerDD	3.SOA_2	262	676060	html-keyboard-response	0.0-262.0	bananas	39	546.4049999136478	apple			Right	false	Right	1
anna20200527a	.93-20200528-longerDD	3.SOA_2	263	677849	html-keyboard-response	0.0-263.0	pear	37	760.6200000736862	strawberry			Left	false	Left	1
anna20200527a	.93-20200528-longerDD	3.SOA_2	264	679532	html-keyboard-response	0.0-264.0	melon	39	650.785000063479	cherries			None	true	Right	-1
anna20200527a	.93-20200528-longerDD	3.SOA_2	265	681236	html-keyboard-response	0.0-265.0	bananas	39	682.6349999755621	apple			Right	false	Right	1
anna20200527a	.93-20200528-longerDD	3.SOA_2	266	682835	html-keyboard-response	0.0-266.0	lemon	39	563.4800000116229	orange			None	true	Right	-1
anna20200527a	.93-20200528-longerDD	3.SOA_2	267	684515	html-keyboard-response	0.0-267.0	pineapple	39	644.6149998810142	coconut			Left	false	Right	0
anna20200527a	.93-20200528-longerDD	3.SOA_2	268	686155	html-keyboard-response	0.0-268.0	melon	39	598.9850000478327	cherries			None	true	Right	-1
anna20200527a	.93-20200528-longerDD	3.SOA_2	269	687789	html-keyboard-response	0.0-269.0	kiwi	37	613.2249999791384	grape			Left	false	Left	1
anna20200527a	.93-20200528-longerDD	3.SOA_2	270	689437	html-keyboard-response	0.0-270.0	pear	37	634.3799999449402	strawberry			Left	false	Left	1
anna20200527a	.93-20200528-longerDD	3.SOA_2	271	690985	html-keyboard-response	0.0-271.0	lemon	39	516.6549999266863	orange			None	true	Right	-1
anna20200527a	.93-20200528-longerDD	3.SOA_2	272	692595	html-keyboard-response	0.0-272.0	pineapple	37	565.8199999015778	coconut			Left	false	Left	1
anna20200527a	.93-20200528-longerDD	3.SOA_3	275	701103	html-keyboard-response	0.0-275.0	pineapple	37	955.8049999177456	coconut			None	true	Left	-1
anna20200527a	.93-20200528-longerDD	3.SOA_3	276	702679	html-keyboard-response	0.0-276.0	lemon	39	561.6900001186877	orange			Right	false	Right	1
anna20200527a	.93-20200528-longerDD	3.SOA_3	277	704616	html-keyboard-response	0.0-277.0	kiwi	39	901.490000076592	grape			Left	false	Right	0
anna20200527a	.93-20200528-longerDD	3.SOA_3	278	706225	html-keyboard-response	0.0-278.0	lemon	39	570.2100000344217	orange			Right	false	Right	1
anna20200527a	.93-20200528-longerDD	3.SOA_3	279	707918	html-keyboard-response	0.0-279.0	pear	37	655.945000005886	strawberry			Left	false	Left	1
anna20200527a	.93-20200528-longerDD	3.SOA_3	280	709554	html-keyboard-response	0.0-280.0	melon	39	600.0900000799447	cherries			Right	false	Right	1
anna20200527a	.93-20200528-longerDD	3.SOA_3	281	711597	html-keyboard-response	0.0-281.0	bananas			apple			None	true	None	0
anna20200527a	.93-20200528-longerDD	3.SOA_3	282	713150	html-keyboard-response	0.0-282.0	melon	39	519.2249999381602	cherries			Right	false	Right	1
anna20200527a	.93-20200528-longerDD	3.SOA_3	283	714726	html-keyboard-response	0.0-283.0	pear	37	562.3149999883026	strawberry			Left	false	Left	1
anna20200527a	.93-20200528-longerDD	3.SOA_3	284	716402	html-keyboard-response	0.0-284.0	bananas	39	640.0750000029802	apple			None	true	Right	-1
anna20200527a	.93-20200528-longerDD	3.SOA_3	285	718045	html-keyboard-response	0.0-285.0	kiwi	37	603.59499999322	grape			Left	false	Left	1
anna20200527a	.93-20200528-longerDD	3.SOA_3	286	720080	html-keyboard-response	0.0-286.0	pineapple			coconut			None	true	None	0
anna20200527a	.93-20200528-longerDD	3.SOA_4	289	728632	html-keyboard-response	0.0-289.0	lemon			orange			None	true	None	0
anna20200527a	.93-20200528-longerDD	3.SOA_4	290	730323	html-keyboard-response	0.0-290.0	pear	37	646.6399999335408	strawberry			Left	false	Left	1
anna20200527a	.93-20200528-longerDD	3.SOA_4	291	731768	html-keyboard-response	0.0-291.0	pear	37	421.390000032261	strawberry			Left	false	Left	1
anna20200527a	.93-20200528-longerDD	3.SOA_4	292	733784	html-keyboard-response	0.0-292.0	pineapple			coconut			None	true	None	0
anna20200527a	.93-20200528-longerDD	3.SOA_4	293	735545	html-keyboard-response	0.0-293.0	kiwi	37	719.5850000716746	grape			Left	false	Left	1
anna20200527a	.93-20200528-longerDD	3.SOA_4	294	737334	html-keyboard-response	0.0-294.0	bananas	39	750.7100000511855	apple			Right	false	Right	1
anna20200527a	.93-20200528-longerDD	3.SOA_4	295	739363	html-keyboard-response	0.0-295.0	lemon			orange			None	true	None	0
anna20200527a	.93-20200528-longerDD	3.SOA_4	296	741325	html-keyboard-response	0.0-296.0	melon	37	949.8000000603497	cherries			Right	false	Left	0
anna20200527a	.93-20200528-longerDD	3.SOA_4	297	742893	html-keyboard-response	0.0-297.0	kiwi	37	554.0000000037253	grape			Left	false	Left	1
anna20200527a	.93-20200528-longerDD	3.SOA_4	298	744546	html-keyboard-response	0.0-298.0	bananas	39	621.0900000296533	apple			Right	false	Right	1
anna20200527a	.93-20200528-longerDD	3.SOA_4	299	746132	html-keyboard-response	0.0-299.0	pineapple	39	550.7499999366701	coconut			None	true	Right	0
anna20200527a	.93-20200528-longerDD	3.SOA_4	300	747934	html-keyboard-response	0.0-300.0	melon	39	786.4399999380112	cherries			Right	false	Right	1
anna20200527a	.93-20200528-longerDD	3.SOA_5	303	756467	html-keyboard-response	0.0-303.0	melon			cherries			Right	false	None	0
anna20200527a	.93-20200528-longerDD	3.SOA_5	304	758224	html-keyboard-response	0.0-304.0	lemon	39	707.1849999483675	orange			Right	false	Right	1
anna20200527a	.93-20200528-longerDD	3.SOA_5	305	759906	html-keyboard-response	0.0-305.0	kiwi	37	636.5800001658499	grape			None	true	Left	-1
anna20200527a	.93-20200528-longerDD	3.SOA_5	306	761671	html-keyboard-response	0.0-306.0	pear	37	748.630000045523	strawberry			None	true	Left	-1
anna20200527a	.93-20200528-longerDD	3.SOA_5	307	763711	html-keyboard-response	0.0-307.0	kiwi			grape			None	true	None	0
anna20200527a	.93-20200528-longerDD	3.SOA_5	308	765426	html-keyboard-response	0.0-308.0	pear	37	700.1849999651313	strawberry			None	true	Left	-1
anna20200527a	.93-20200528-longerDD	3.SOA_5	309	767168	html-keyboard-response	0.0-309.0	melon	39	699.9699999578297	cherries			Right	false	Right	1
anna20200527a	.93-20200528-longerDD	3.SOA_5	310	768894	html-keyboard-response	0.0-310.0	bananas	39	699.9350001569837	apple			Right	false	Right	1
anna20200527a	.93-20200528-longerDD	3.SOA_5	311	770541	html-keyboard-response	0.0-311.0	bananas	39	609.0449998155236	apple			Right	false	Right	1
anna20200527a	.93-20200528-longerDD	3.SOA_5	312	772456	html-keyboard-response	0.0-312.0	pineapple	37	899.8300000093877	coconut			Left	false	Left	1
anna20200527a	.93-20200528-longerDD	3.SOA_5	313	774166	html-keyboard-response	0.0-313.0	lemon	39	668.4999999124557	orange			Right	false	Right	1
anna20200527a	.93-20200528-longerDD	3.SOA_5	314	775887	html-keyboard-response	0.0-314.0	pineapple	37	682.3799998965114	coconut			Left	false	Left	1
anna20200527a	.93-20200528-longerDD	3.SOA_6	317	784332	html-keyboard-response	0.0-317.0	lemon	39	911.9500000961125	orange			Right	false	Right	1
anna20200527a	.93-20200528-longerDD	3.SOA_6	318	786133	html-keyboard-response	0.0-318.0	pineapple	37	754.4450000859797	coconut			Left	false	Left	1
anna20200527a	.93-20200528-longerDD	3.SOA_6	319	787908	html-keyboard-response	0.0-319.0	bananas	39	741.4450000505894	apple			Right	false	Right	1
anna20200527a	.93-20200528-longerDD	3.SOA_6	320	789927	html-keyboard-response	0.0-320.0	melon			cherries			None	true	None	0
anna20200527a	.93-20200528-longerDD	3.SOA_6	321	791964	html-keyboard-response	0.0-321.0	melon			cherries			None	true	None	0
anna20200527a	.93-20200528-longerDD	3.SOA_6	322	793715	html-keyboard-response	0.0-322.0	pineapple	37	732.4149999767542	coconut			Left	false	Left	1
anna20200527a	.93-20200528-longerDD	3.SOA_6	323	795353	html-keyboard-response	0.0-323.0	bananas	39	590.5000001657754	apple			Right	false	Right	1
anna20200527a	.93-20200528-longerDD	3.SOA_6	324	797044	html-keyboard-response	0.0-324.0	pear	37	653.3500000368804	strawberry			None	true	Left	-1
anna20200527a	.93-20200528-longerDD	3.SOA_6	325	798619	html-keyboard-response	0.0-325.0	lemon	39	559.5050000119954	orange			Right	false	Right	1
anna20200527a	.93-20200528-longerDD	3.SOA_6	326	800364	html-keyboard-response	0.0-326.0	kiwi	37	729.4100001454353	grape			Left	false	Left	1
anna20200527a	.93-20200528-longerDD	3.SOA_6	327	801845	html-keyboard-response	0.0-327.0	kiwi	37	435.6350000016391	grape			Left	false	Left	1
anna20200527a	.93-20200528-longerDD	3.SOA_6	328	803889	html-keyboard-response	0.0-328.0	pear			strawberry			None	true	None	0
anna20200527a	.93-20200528-longerDD	3.SOA_7	331	812268	html-keyboard-response	0.0-331.0	lemon	39	848.1399999000132	orange			Right	false	Right	1
anna20200527a	.93-20200528-longerDD	3.SOA_7	332	814315	html-keyboard-response	0.0-332.0	melon			cherries			None	true	None	0
anna20200527a	.93-20200528-longerDD	3.SOA_7	333	816156	html-keyboard-response	0.0-333.0	kiwi	37	799.1049999836832	grape			None	true	Left	-1
anna20200527a	.93-20200528-longerDD	3.SOA_7	334	817830	html-keyboard-response	0.0-334.0	bananas	39	658.640000037849	apple			Right	false	Right	1
anna20200527a	.93-20200528-longerDD	3.SOA_7	335	819639	html-keyboard-response	0.0-335.0	pineapple	37	789.8049999494106	coconut			Left	false	Left	1
anna20200527a	.93-20200528-longerDD	3.SOA_7	336	821553	html-keyboard-response	0.0-336.0	pear	37	873.2300000265241	strawberry			Left	false	Left	1
anna20200527a	.93-20200528-longerDD	3.SOA_7	337	823262	html-keyboard-response	0.0-337.0	lemon	39	691.6099998634309	orange			Right	false	Right	1
anna20200527a	.93-20200528-longerDD	3.SOA_7	338	824905	html-keyboard-response	0.0-338.0	bananas	39	600.8299998939037	apple			Right	false	Right	1
anna20200527a	.93-20200528-longerDD	3.SOA_7	339	826607	html-keyboard-response	0.0-339.0	kiwi	37	662.5549998134375	grape			None	true	Left	-1
anna20200527a	.93-20200528-longerDD	3.SOA_7	340	828641	html-keyboard-response	0.0-340.0	melon			cherries			None	true	None	0
anna20200527a	.93-20200528-longerDD	3.SOA_7	341	830443	html-keyboard-response	0.0-341.0	pear	37	763.7400000821799	strawberry			Left	false	Left	1
anna20200527a	.93-20200528-longerDD	3.SOA_7	342	832357	html-keyboard-response	0.0-342.0	pineapple	37	871.9400002155453	coconut			Left	false	Left	1
anna20200527a	.93-20200528-longerDD	3.SOA_8	345	840906	html-keyboard-response	0.0-345.0	pineapple			coconut			Left	false	None	0
anna20200527a	.93-20200528-longerDD	3.SOA_8	346	842675	html-keyboard-response	0.0-346.0	lemon	39	714.2250000033528	orange			Right	false	Right	1
anna20200527a	.93-20200528-longerDD	3.SOA_8	347	844280	html-keyboard-response	0.0-347.0	pear	37	557.1800000034273	strawberry			None	true	Left	-1
anna20200527a	.93-20200528-longerDD	3.SOA_8	348	845975	html-keyboard-response	0.0-348.0	lemon	39	678.2299999613315	orange			Right	false	Right	1
anna20200527a	.93-20200528-longerDD	3.SOA_8	349	847746	html-keyboard-response	0.0-349.0	melon	37	735.6750001199543	cherries			Right	false	Left	0
anna20200527a	.93-20200528-longerDD	3.SOA_8	350	849480	html-keyboard-response	0.0-350.0	kiwi	37	688.4900000877678	grape			Left	false	Left	1
anna20200527a	.93-20200528-longerDD	3.SOA_8	351	851497	html-keyboard-response	0.0-351.0	bananas			apple			None	true	None	0
anna20200527a	.93-20200528-longerDD	3.SOA_8	352	853316	html-keyboard-response	0.0-352.0	melon	39	784.5949998591095	cherries			Right	false	Right	1
anna20200527a	.93-20200528-longerDD	3.SOA_8	353	855224	html-keyboard-response	0.0-353.0	kiwi	37	856.815000064671	grape			Left	false	Left	1
anna20200527a	.93-20200528-longerDD	3.SOA_8	354	857262	html-keyboard-response	0.0-354.0	pear			strawberry			None	true	None	0
anna20200527a	.93-20200528-longerDD	3.SOA_8	355	858994	html-keyboard-response	0.0-355.0	pineapple	39	686.4400000777096	coconut			Left	false	Right	0
anna20200527a	.93-20200528-longerDD	3.SOA_8	356	860613	html-keyboard-response	0.0-356.0	bananas	39	602.8549999464303	apple			None	true	Right	-1
anna20200527a	.93-20200528-longerDD	4.DD_0	360	890688	html-keyboard-response	0.0-360.0	pear			strawberry			Left	false	None	0
anna20200527a	.93-20200528-longerDD	4.DD_0	361	892676	html-keyboard-response	0.0-361.0	kiwi	39	947.3200000356883	grape			Left	false	Right	0
anna20200527a	.93-20200528-longerDD	4.DD_0	362	894420	html-keyboard-response	0.0-362.0	lemon	39	725.2750000916421	orange			Right	false	Right	1
anna20200527a	.93-20200528-longerDD	4.DD_0	363	896382	html-keyboard-response	0.0-363.0	bananas	39	919.7899999562651	apple			None	true	Right	-1
anna20200527a	.93-20200528-longerDD	4.DD_0	364	898436	html-keyboard-response	0.0-364.0	bananas			apple			None	true	None	0
anna20200527a	.93-20200528-longerDD	4.DD_0	365	900112	html-keyboard-response	0.0-365.0	lemon	37	628.6349999718368	orange			Right	false	Left	0
anna20200527a	.93-20200528-longerDD	4.DD_0	366	901741	html-keyboard-response	0.0-366.0	pineapple	37	583.7350001093	coconut			None	true	Left	-1
anna20200527a	.93-20200528-longerDD	4.DD_0	367	903538	html-keyboard-response	0.0-367.0	kiwi	37	746.6100000310689	grape			Left	false	Left	1
anna20200527a	.93-20200528-longerDD	4.DD_0	368	905131	html-keyboard-response	0.0-368.0	melon	39	548.8449998665601	cherries			Right	false	Right	1
anna20200527a	.93-20200528-longerDD	4.DD_0	369	906743	html-keyboard-response	0.0-369.0	pineapple	39	570.2049999963492	coconut			None	true	Right	0
anna20200527a	.93-20200528-longerDD	4.DD_0	370	908338	html-keyboard-response	0.0-370.0	pear	37	545.4599999357015	strawberry			Left	false	Left	1
anna20200527a	.93-20200528-longerDD	4.DD_0	371	910150	html-keyboard-response	0.0-371.0	melon	39	770.4199999570847	cherries			Right	false	Right	1
anna20200527a	.93-20200528-longerDD	4.DD_1	374	918688	html-keyboard-response	0.0-374.0	kiwi			grape			None	true	None	0
anna20200527a	.93-20200528-longerDD	4.DD_1	375	920456	html-keyboard-response	0.0-375.0	pineapple	37	707.7099999878556	coconut			Left	false	Left	1
anna20200527a	.93-20200528-longerDD	4.DD_1	376	922087	html-keyboard-response	0.0-376.0	pear	37	589.1050000209361	strawberry			Left	false	Left	1
anna20200527a	.93-20200528-longerDD	4.DD_1	377	924104	html-keyboard-response	0.0-377.0	lemon			orange			None	true	None	0
anna20200527a	.93-20200528-longerDD	4.DD_1	378	925791	html-keyboard-response	0.0-378.0	bananas	39	644.815000006929	apple			Right	false	Right	1
anna20200527a	.93-20200528-longerDD	4.DD_1	379	927841	html-keyboard-response	0.0-379.0	lemon			orange			None	true	None	0
anna20200527a	.93-20200528-longerDD	4.DD_1	380	929540	html-keyboard-response	0.0-380.0	melon	39	650.6000000517815	cherries			Right	false	Right	1
anna20200527a	.93-20200528-longerDD	4.DD_1	381	931245	html-keyboard-response	0.0-381.0	pineapple	37	655.1049998961389	coconut			Left	false	Left	1
anna20200527a	.93-20200528-longerDD	4.DD_1	382	933285	html-keyboard-response	0.0-382.0	melon			cherries			Right	false	None	0
anna20200527a	.93-20200528-longerDD	4.DD_1	383	935042	html-keyboard-response	0.0-383.0	kiwi	37	704.579999903217	grape			None	true	Left	-1
anna20200527a	.93-20200528-longerDD	4.DD_1	384	936802	html-keyboard-response	0.0-384.0	bananas	39	714.1849999316037	apple			Right	false	Right	1
anna20200527a	.93-20200528-longerDD	4.DD_1	385	938382	html-keyboard-response	0.0-385.0	pear	37	565.6600000802428	strawberry			Left	false	Left	1
anna20200527a	.93-20200528-longerDD	4.DD_2	388	946918	html-keyboard-response	0.0-388.0	lemon			orange			None	true	None	0
anna20200527a	.93-20200528-longerDD	4.DD_2	389	948680	html-keyboard-response	0.0-389.0	pear	37	716.6599999181926	strawberry			Left	false	Left	1
anna20200527a	.93-20200528-longerDD	4.DD_2	390	950720	html-keyboard-response	0.0-390.0	melon			cherries			None	true	None	0
anna20200527a	.93-20200528-longerDD	4.DD_2	391	952474	html-keyboard-response	0.0-391.0	bananas	39	704.4150000438094	apple			Right	false	Right	1
anna20200527a	.93-20200528-longerDD	4.DD_2	392	954134	html-keyboard-response	0.0-392.0	pineapple	37	619.7599999140948	coconut			Left	false	Left	1
anna20200527a	.93-20200528-longerDD	4.DD_2	393	955928	html-keyboard-response	0.0-393.0	bananas	39	769.4249998312443	apple			Right	false	Right	1
anna20200527a	.93-20200528-longerDD	4.DD_2	394	957602	html-keyboard-response	0.0-394.0	kiwi	37	627.8150000143796	grape			Left	false	Left	1
anna20200527a	.93-20200528-longerDD	4.DD_2	395	959320	html-keyboard-response	0.0-395.0	pear	37	670.4249999020249	strawberry			Left	false	Left	1
anna20200527a	.93-20200528-longerDD	4.DD_2	396	960995	html-keyboard-response	0.0-396.0	pineapple	37	631.7350000608712	coconut			Left	false	Left	1
anna20200527a	.93-20200528-longerDD	4.DD_2	397	962651	html-keyboard-response	0.0-397.0	kiwi	37	639.8300000000745	grape			Left	false	Left	1
anna20200527a	.93-20200528-longerDD	4.DD_2	398	964202	html-keyboard-response	0.0-398.0	lemon	39	523.7750001251698	orange			None	true	Right	-1
anna20200527a	.93-20200528-longerDD	4.DD_2	399	966258	html-keyboard-response	0.0-399.0	melon			cherries			None	true	None	0
anna20200527a	.93-20200528-longerDD	4.DD_3	402	974794	html-keyboard-response	0.0-402.0	kiwi			grape			Left	false	None	0
anna20200527a	.93-20200528-longerDD	4.DD_3	403	976493	html-keyboard-response	0.0-403.0	pineapple	37	651.8249998334795	coconut			None	true	Left	-1
anna20200527a	.93-20200528-longerDD	4.DD_3	404	978135	html-keyboard-response	0.0-404.0	lemon	39	598.3049999922514	orange			Right	false	Right	1
anna20200527a	.93-20200528-longerDD	4.DD_3	405	979762	html-keyboard-response	0.0-405.0	kiwi	37	614.629999967292	grape			Left	false	Left	1
anna20200527a	.93-20200528-longerDD	4.DD_3	406	981343	html-keyboard-response	0.0-406.0	pear	37	556.4449999947101	strawberry			Left	false	Left	1
anna20200527a	.93-20200528-longerDD	4.DD_3	407	982864	html-keyboard-response	0.0-407.0	pear	37	483.92500006593764	strawberry			Left	false	Left	1
anna20200527a	.93-20200528-longerDD	4.DD_3	408	984676	html-keyboard-response	0.0-408.0	melon	39	764.9999998975545	cherries			Right	false	Right	1
anna20200527a	.93-20200528-longerDD	4.DD_3	409	986284	html-keyboard-response	0.0-409.0	melon	39	564.6100000012666	cherries			Right	false	Right	1
anna20200527a	.93-20200528-longerDD	4.DD_3	410	987989	html-keyboard-response	0.0-410.0	lemon	39	687.3449999839067	orange			Right	false	Right	1
anna20200527a	.93-20200528-longerDD	4.DD_3	411	990037	html-keyboard-response	0.0-411.0	bananas			apple			None	true	None	0
anna20200527a	.93-20200528-longerDD	4.DD_3	412	992091	html-keyboard-response	0.0-412.0	pineapple			coconut			None	true	None	0
anna20200527a	.93-20200528-longerDD	4.DD_3	413	994137	html-keyboard-response	0.0-413.0	bananas			apple			None	true	None	0
anna20200527a	.93-20200528-longerDD	4.DD_4	416	1002690	html-keyboard-response	0.0-416.0	lemon			orange			None	true	None	0
anna20200527a	.93-20200528-longerDD	4.DD_4	417	1004220	html-keyboard-response	0.0-417.0	pear	37	486.3599999807775	strawberry			Left	false	Left	1
anna20200527a	.93-20200528-longerDD	4.DD_4	418	1006267	html-keyboard-response	0.0-418.0	pineapple			coconut			None	true	None	0
anna20200527a	.93-20200528-longerDD	4.DD_4	419	1008284	html-keyboard-response	0.0-419.0	lemon			orange			None	true	None	0
anna20200527a	.93-20200528-longerDD	4.DD_4	420	1010134	html-keyboard-response	0.0-420.0	bananas	39	798.8649997860193	apple			Right	false	Right	1
anna20200527a	.93-20200528-longerDD	4.DD_4	421	1011774	html-keyboard-response	0.0-421.0	pineapple	37	592.3250000923872	coconut			None	true	Left	-1
anna20200527a	.93-20200528-longerDD	4.DD_4	422	1013426	html-keyboard-response	0.0-422.0	kiwi	37	633.204999845475	grape			Left	false	Left	1
anna20200527a	.93-20200528-longerDD	4.DD_4	423	1015469	html-keyboard-response	0.0-423.0	bananas			apple			Right	false	None	0
anna20200527a	.93-20200528-longerDD	4.DD_4	424	1017197	html-keyboard-response	0.0-424.0	kiwi	37	681.285000173375	grape			Left	false	Left	1
anna20200527a	.93-20200528-longerDD	4.DD_4	425	1018829	html-keyboard-response	0.0-425.0	melon	39	613.5749998502433	cherries			Right	false	Right	1
anna20200527a	.93-20200528-longerDD	4.DD_4	426	1020418	html-keyboard-response	0.0-426.0	melon	39	540.9300001338124	cherries			Right	false	Right	1
anna20200527a	.93-20200528-longerDD	4.DD_4	427	1022003	html-keyboard-response	0.0-427.0	pear	37	527.1949998568743	strawberry			Left	false	Left	1
anna20200527a	.93-20200528-longerDD	4.DD_5	430	1030420	html-keyboard-response	0.0-430.0	melon	39	840.0799999944866	cherries			Right	false	Right	1
anna20200527a	.93-20200528-longerDD	4.DD_5	431	1032055	html-keyboard-response	0.0-431.0	bananas	39	589.949999935925	apple			Right	false	Right	1
anna20200527a	.93-20200528-longerDD	4.DD_5	432	1033706	html-keyboard-response	0.0-432.0	pineapple	37	632.234999909997	coconut			Left	false	Left	1
anna20200527a	.93-20200528-longerDD	4.DD_5	433	1035382	html-keyboard-response	0.0-433.0	pear	37	641.4249998051673	strawberry			None	true	Left	-1
anna20200527a	.93-20200528-longerDD	4.DD_5	434	1037424	html-keyboard-response	0.0-434.0	pear			strawberry			None	true	None	0
anna20200527a	.93-20200528-longerDD	4.DD_5	435	1039470	html-keyboard-response	0.0-435.0	kiwi			grape			None	true	None	0
anna20200527a	.93-20200528-longerDD	4.DD_5	436	1041040	html-keyboard-response	0.0-436.0	bananas	39	519.4550000596792	apple			Right	false	Right	1
anna20200527a	.93-20200528-longerDD	4.DD_5	437	1042610	html-keyboard-response	0.0-437.0	lemon	39	525.9799999184906	orange			Right	false	Right	1
anna20200527a	.93-20200528-longerDD	4.DD_5	438	1044628	html-keyboard-response	0.0-438.0	kiwi			grape			None	true	None	0
anna20200527a	.93-20200528-longerDD	4.DD_5	439	1046288	html-keyboard-response	0.0-439.0	lemon	39	609.7500000614673	orange			Right	false	Right	1
anna20200527a	.93-20200528-longerDD	4.DD_5	440	1047951	html-keyboard-response	0.0-440.0	pineapple	37	616.1400000564754	coconut			Left	false	Left	1
anna20200527a	.93-20200528-longerDD	4.DD_5	441	1049613	html-keyboard-response	0.0-441.0	melon	39	643.9050000626594	cherries			Right	false	Right	1
anna20200527a	.93-20200528-longerDD	4.DD_6	444	1058178	html-keyboard-response	0.0-444.0	kiwi			grape			Left	false	None	0
anna20200527a	.93-20200528-longerDD	4.DD_6	445	1059857	html-keyboard-response	0.0-445.0	bananas	39	640.1200001128018	apple			Right	false	Right	1
anna20200527a	.93-20200528-longerDD	4.DD_6	446	1061444	html-keyboard-response	0.0-446.0	lemon	37	569.4649999495596	orange			Right	false	Left	0
anna20200527a	.93-20200528-longerDD	4.DD_6	447	1063116	html-keyboard-response	0.0-447.0	pear	37	623.2750001363456	strawberry			None	true	Left	-1
anna20200527a	.93-20200528-longerDD	4.DD_6	448	1064977	html-keyboard-response	0.0-448.0	kiwi	37	798.6299998592585	grape			Left	false	Left	1
anna20200527a	.93-20200528-longerDD	4.DD_6	449	1066708	html-keyboard-response	0.0-449.0	pineapple	37	690.1599999982864	coconut			Left	false	Left	1
anna20200527a	.93-20200528-longerDD	4.DD_6	450	1068155	html-keyboard-response	0.0-450.0	pineapple	37	430.3749999962747	coconut			Left	false	Left	1
anna20200527a	.93-20200528-longerDD	4.DD_6	451	1069844	html-keyboard-response	0.0-451.0	melon	39	654.0250000543892	cherries			None	true	Right	-1
anna20200527a	.93-20200528-longerDD	4.DD_6	452	1071538	html-keyboard-response	0.0-452.0	lemon	39	634.5349999610335	orange			Right	false	Right	1
anna20200527a	.93-20200528-longerDD	4.DD_6	453	1073386	html-keyboard-response	0.0-453.0	bananas	39	796.6299999970943	apple			Right	false	Right	1
anna20200527a	.93-20200528-longerDD	4.DD_6	454	1075404	html-keyboard-response	0.0-454.0	pear			strawberry			None	true	None	0
anna20200527a	.93-20200528-longerDD	4.DD_6	455	1077462	html-keyboard-response	0.0-455.0	melon			cherries			None	true	None	0
anna20200527a	.93-20200528-longerDD	4.DD_7	458	1085865	html-keyboard-response	0.0-458.0	lemon	39	866.0349999554455	orange			Right	false	Right	1
anna20200527a	.93-20200528-longerDD	4.DD_7	459	1087900	html-keyboard-response	0.0-459.0	melon			cherries			None	true	None	0
anna20200527a	.93-20200528-longerDD	4.DD_7	460	1089614	html-keyboard-response	0.0-460.0	bananas	39	671.2750000879169	apple			Right	false	Right	1
anna20200527a	.93-20200528-longerDD	4.DD_7	461	1091635	html-keyboard-response	0.0-461.0	kiwi			grape			None	true	None	0
anna20200527a	.93-20200528-longerDD	4.DD_7	462	1093418	html-keyboard-response	0.0-462.0	pineapple	37	724.4299999438226	coconut			Left	false	Left	1
anna20200527a	.93-20200528-longerDD	4.DD_7	463	1094991	html-keyboard-response	0.0-463.0	bananas	39	553.4900000784546	apple			Right	false	Right	1
anna20200527a	.93-20200528-longerDD	4.DD_7	464	1097036	html-keyboard-response	0.0-464.0	kiwi			grape			None	true	None	0
anna20200527a	.93-20200528-longerDD	4.DD_7	465	1099082	html-keyboard-response	0.0-465.0	melon			cherries			None	true	None	0
anna20200527a	.93-20200528-longerDD	4.DD_7	466	1100673	html-keyboard-response	0.0-466.0	lemon	39	536.8550000712276	orange			Right	false	Right	1
anna20200527a	.93-20200528-longerDD	4.DD_7	467	1102601	html-keyboard-response	0.0-467.0	pear	37	886.9799999520183	strawberry			Left	false	Left	1
anna20200527a	.93-20200528-longerDD	4.DD_7	468	1104098	html-keyboard-response	0.0-468.0	pear	37	434.14999986998737	strawberry			Left	false	Left	1
anna20200527a	.93-20200528-longerDD	4.DD_7	469	1105821	html-keyboard-response	0.0-469.0	pineapple	37	707.1050000376999	coconut			Left	false	Left	1
anna20200527a	.93-20200528-longerDD	4.DD_8	472	1114128	html-keyboard-response	0.0-472.0	lemon	39	736.9649999309331	orange			Right	false	Right	1
anna20200527a	.93-20200528-longerDD	4.DD_8	473	1116175	html-keyboard-response	0.0-473.0	bananas			apple			None	true	None	0
anna20200527a	.93-20200528-longerDD	4.DD_8	474	1118195	html-keyboard-response	0.0-474.0	pear			strawberry			None	true	None	0
anna20200527a	.93-20200528-longerDD	4.DD_8	475	1119838	html-keyboard-response	0.0-475.0	melon	39	586.2499999348074	cherries			Right	false	Right	1
anna20200527a	.93-20200528-longerDD	4.DD_8	476	1121414	html-keyboard-response	0.0-476.0	lemon	39	533.0749999266118	orange			Right	false	Right	1
anna20200527a	.93-20200528-longerDD	4.DD_8	477	1123134	html-keyboard-response	0.0-477.0	pineapple	37	697.1050000283867	coconut			Left	false	Left	1
anna20200527a	.93-20200528-longerDD	4.DD_8	478	1125191	html-keyboard-response	0.0-478.0	pear			strawberry			None	true	None	0
anna20200527a	.93-20200528-longerDD	4.DD_8	479	1126919	html-keyboard-response	0.0-479.0	kiwi	37	665.999999968335	grape			Left	false	Left	1
anna20200527a	.93-20200528-longerDD	4.DD_8	480	1128443	html-keyboard-response	0.0-480.0	bananas	39	506.3200001604855	apple			None	true	Right	-1
anna20200527a	.93-20200528-longerDD	4.DD_8	481	1130125	html-keyboard-response	0.0-481.0	pineapple	37	665.6000001821667	coconut			Left	false	Left	1
anna20200527a	.93-20200528-longerDD	4.DD_8	482	1131805	html-keyboard-response	0.0-482.0	melon	39	628.7549999542534	cherries			Right	false	Right	1
anna20200527a	.93-20200528-longerDD	4.DD_8	483	1133509	html-keyboard-response	0.0-483.0	kiwi	37	644.8800000362098	grape			Left	false	Left	1
dbbf8220893d497d403bb9cdf49db7a4	.98-20200529-survey_fixmax	1.ID_0	1	34607	html-keyboard-response	0.0-1.0	apple	37	1993	coconut			Right	false	Left	0
dbbf8220893d497d403bb9cdf49db7a4	.98-20200529-survey_fixmax	1.ID_0	3	38032	html-keyboard-response	0.0-3.0	bananas	37	1417	strawberry			Left	false	Left	1
dbbf8220893d497d403bb9cdf49db7a4	.98-20200529-survey_fixmax	1.ID_0	5	42158	html-keyboard-response	0.0-5.0	lemon	39	2119.9999999999927	kiwi			Right	false	Right	1
dbbf8220893d497d403bb9cdf49db7a4	.98-20200529-survey_fixmax	1.ID_0	7	46278	html-keyboard-response	0.0-7.0	pear	37	2114.9999999999927	grape			Left	false	Left	1
dbbf8220893d497d403bb9cdf49db7a4	.98-20200529-survey_fixmax	1.ID_0	9	50193	html-keyboard-response	0.0-9.0	cherries	39	1909	orange			Left	false	Right	0
dbbf8220893d497d403bb9cdf49db7a4	.98-20200529-survey_fixmax	1.ID_0	11	53611	html-keyboard-response	0.0-11.0	apple	39	1411.0000000000073	coconut			Right	false	Right	1
dbbf8220893d497d403bb9cdf49db7a4	.98-20200529-survey_fixmax	1.ID_0	13	57453	html-keyboard-response	0.0-13.0	lemon	39	1835.9999999999927	kiwi			Right	false	Right	1
dbbf8220893d497d403bb9cdf49db7a4	.98-20200529-survey_fixmax	1.ID_0	15	60818	html-keyboard-response	0.0-15.0	cherries	37	1358	orange			Left	false	Left	1
dbbf8220893d497d403bb9cdf49db7a4	.98-20200529-survey_fixmax	1.ID_0	17	64448	html-keyboard-response	0.0-17.0	melon	39	1624	pineapple			Right	false	Right	1
dbbf8220893d497d403bb9cdf49db7a4	.98-20200529-survey_fixmax	1.ID_0	19	67891	html-keyboard-response	0.0-19.0	pear	37	1436	grape			Left	false	Left	1
dbbf8220893d497d403bb9cdf49db7a4	.98-20200529-survey_fixmax	1.ID_0	21	72023	html-keyboard-response	0.0-21.0	bananas	37	2127	strawberry			Left	false	Left	1
dbbf8220893d497d403bb9cdf49db7a4	.98-20200529-survey_fixmax	1.ID_0	23	75465	html-keyboard-response	0.0-23.0	melon	37	1435	pineapple			Right	false	Left	0
dbbf8220893d497d403bb9cdf49db7a4	.98-20200529-survey_fixmax	1.ID_1	25	79310	html-keyboard-response	0.0-25.0	cherries	39	1839	orange			Left	false	Right	0
dbbf8220893d497d403bb9cdf49db7a4	.98-20200529-survey_fixmax	1.ID_1	28	86033	html-keyboard-response	0.0-28.0	melon	37	2715	pineapple			Right	false	Left	0
dbbf8220893d497d403bb9cdf49db7a4	.98-20200529-survey_fixmax	1.ID_1	30	89519	html-keyboard-response	0.0-30.0	apple	39	1480	coconut			Right	false	Right	1
dbbf8220893d497d403bb9cdf49db7a4	.98-20200529-survey_fixmax	1.ID_1	32	93294	html-keyboard-response	0.0-32.0	cherries	39	1770	orange			Left	false	Right	0
dbbf8220893d497d403bb9cdf49db7a4	.98-20200529-survey_fixmax	1.ID_1	34	97034	html-keyboard-response	0.0-34.0	pear	37	1735	grape			Left	false	Left	1
dbbf8220893d497d403bb9cdf49db7a4	.98-20200529-survey_fixmax	1.ID_1	36	100130	html-keyboard-response	0.0-36.0	apple	39	1089	coconut			Right	false	Right	1
dbbf8220893d497d403bb9cdf49db7a4	.98-20200529-survey_fixmax	1.ID_1	38	104844	html-keyboard-response	0.0-38.0	lemon	37	2707.0000000000146	kiwi			Right	false	Left	0
dbbf8220893d497d403bb9cdf49db7a4	.98-20200529-survey_fixmax	1.ID_1	40	111177	html-keyboard-response	0.0-40.0	pear	37	4326.999999999985	grape			Left	false	Left	1
dbbf8220893d497d403bb9cdf49db7a4	.98-20200529-survey_fixmax	1.ID_1	42	114855	html-keyboard-response	0.0-42.0	bananas	37	1673.0000000000146	strawberry			Left	false	Left	1
dbbf8220893d497d403bb9cdf49db7a4	.98-20200529-survey_fixmax	1.ID_1	44	117736	html-keyboard-response	0.0-44.0	bananas	37	873.9999999999854	strawberry			Left	false	Left	1
dbbf8220893d497d403bb9cdf49db7a4	.98-20200529-survey_fixmax	1.ID_1	46	120968	html-keyboard-response	0.0-46.0	lemon	39	1227.0000000000146	kiwi			Right	false	Right	1
dbbf8220893d497d403bb9cdf49db7a4	.98-20200529-survey_fixmax	1.ID_1	48	125025	html-keyboard-response	0.0-48.0	melon	37	2051	pineapple			Right	false	Left	0
dbbf8220893d497d403bb9cdf49db7a4	.98-20200529-survey_fixmax	1.ID_2	50	129836	html-keyboard-response	0.0-50.0	cherries	37	2800.9999999999854	orange			Left	false	Left	1
dbbf8220893d497d403bb9cdf49db7a4	.98-20200529-survey_fixmax	1.ID_2	53	135265	html-keyboard-response	0.0-53.0	cherries	37	1420	orange			Left	false	Left	1
dbbf8220893d497d403bb9cdf49db7a4	.98-20200529-survey_fixmax	1.ID_2	55	138248	html-keyboard-response	0.0-55.0	lemon	39	977	kiwi			Right	false	Right	1
dbbf8220893d497d403bb9cdf49db7a4	.98-20200529-survey_fixmax	1.ID_2	57	143783	html-keyboard-response	0.0-57.0	melon	37	3529	pineapple			Right	false	Left	0
dbbf8220893d497d403bb9cdf49db7a4	.98-20200529-survey_fixmax	1.ID_2	59	147079	html-keyboard-response	0.0-59.0	apple	39	1290	coconut			Right	false	Right	1
dbbf8220893d497d403bb9cdf49db7a4	.98-20200529-survey_fixmax	1.ID_2	61	150354	html-keyboard-response	0.0-61.0	bananas	37	1269	strawberry			Left	false	Left	1
dbbf8220893d497d403bb9cdf49db7a4	.98-20200529-survey_fixmax	1.ID_2	63	154041	html-keyboard-response	0.0-63.0	pear	37	1681.000000000029	grape			Left	false	Left	1
dbbf8220893d497d403bb9cdf49db7a4	.98-20200529-survey_fixmax	1.ID_2	65	158125	html-keyboard-response	0.0-65.0	bananas	37	2079	strawberry			Left	false	Left	1
dbbf8220893d497d403bb9cdf49db7a4	.98-20200529-survey_fixmax	1.ID_2	67	161216	html-keyboard-response	0.0-67.0	apple	39	1085	coconut			Right	false	Right	1
dbbf8220893d497d403bb9cdf49db7a4	.98-20200529-survey_fixmax	1.ID_2	69	164043	html-keyboard-response	0.0-69.0	melon	39	820	pineapple			Right	false	Right	1
dbbf8220893d497d403bb9cdf49db7a4	.98-20200529-survey_fixmax	1.ID_2	71	167328	html-keyboard-response	0.0-71.0	lemon	39	1279	kiwi			Right	false	Right	1
dbbf8220893d497d403bb9cdf49db7a4	.98-20200529-survey_fixmax	1.ID_2	73	170455	html-keyboard-response	0.0-73.0	pear	37	1121	grape			Left	false	Left	1
dbbf8220893d497d403bb9cdf49db7a4	.98-20200529-survey_fixmax	1.ID_3	75	174455	html-keyboard-response	0.0-75.0	apple	39	1994	coconut			Right	false	Right	1
dbbf8220893d497d403bb9cdf49db7a4	.98-20200529-survey_fixmax	1.ID_3	78	180658	html-keyboard-response	0.0-78.0	bananas	37	2195	strawberry			Left	false	Left	1
dbbf8220893d497d403bb9cdf49db7a4	.98-20200529-survey_fixmax	1.ID_3	80	184736	html-keyboard-response	0.0-80.0	cherries	37	2071	orange			Left	false	Left	1
dbbf8220893d497d403bb9cdf49db7a4	.98-20200529-survey_fixmax	1.ID_3	82	187935	html-keyboard-response	0.0-82.0	melon	39	1193	pineapple			Right	false	Right	1
dbbf8220893d497d403bb9cdf49db7a4	.98-20200529-survey_fixmax	1.ID_3	84	191115	html-keyboard-response	0.0-84.0	lemon	39	1174	kiwi			Right	false	Right	1
dbbf8220893d497d403bb9cdf49db7a4	.98-20200529-survey_fixmax	1.ID_3	86	194788	html-keyboard-response	0.0-86.0	apple	39	1667	coconut			Right	false	Right	1
dbbf8220893d497d403bb9cdf49db7a4	.98-20200529-survey_fixmax	1.ID_3	88	198432	html-keyboard-response	0.0-88.0	melon	39	1637	pineapple			Right	false	Right	1
dbbf8220893d497d403bb9cdf49db7a4	.98-20200529-survey_fixmax	1.ID_3	90	201579	html-keyboard-response	0.0-90.0	lemon	39	1142	kiwi			Right	false	Right	1
dbbf8220893d497d403bb9cdf49db7a4	.98-20200529-survey_fixmax	1.ID_3	92	204840	html-keyboard-response	0.0-92.0	cherries	37	1253	orange			Left	false	Left	1
dbbf8220893d497d403bb9cdf49db7a4	.98-20200529-survey_fixmax	1.ID_3	94	208103	html-keyboard-response	0.0-94.0	pear	37	1257	grape			Left	false	Left	1
dbbf8220893d497d403bb9cdf49db7a4	.98-20200529-survey_fixmax	1.ID_3	96	211274	html-keyboard-response	0.0-96.0	bananas	37	1164	strawberry			Left	false	Left	1
dbbf8220893d497d403bb9cdf49db7a4	.98-20200529-survey_fixmax	1.ID_3	98	214150	html-keyboard-response	0.0-98.0	pear	37	869	grape			Left	false	Left	1
dbbf8220893d497d403bb9cdf49db7a4	.98-20200529-survey_fixmax	1.ID_4	100	217195	html-keyboard-response	0.0-100.0	apple	39	1037	coconut			Right	false	Right	1
dbbf8220893d497d403bb9cdf49db7a4	.98-20200529-survey_fixmax	1.ID_4	103	223482	html-keyboard-response	0.0-103.0	pear	37	2278.000000000029	grape			Left	false	Left	1
dbbf8220893d497d403bb9cdf49db7a4	.98-20200529-survey_fixmax	1.ID_4	105	226308	html-keyboard-response	0.0-105.0	pear	37	819	grape			Left	false	Left	1
dbbf8220893d497d403bb9cdf49db7a4	.98-20200529-survey_fixmax	1.ID_4	107	229797	html-keyboard-response	0.0-107.0	bananas	39	1482	strawberry			Left	false	Right	0
dbbf8220893d497d403bb9cdf49db7a4	.98-20200529-survey_fixmax	1.ID_4	109	233326	html-keyboard-response	0.0-109.0	lemon	39	1522.999999999971	kiwi			Right	false	Right	1
dbbf8220893d497d403bb9cdf49db7a4	.98-20200529-survey_fixmax	1.ID_4	111	236125	html-keyboard-response	0.0-111.0	apple	39	792	coconut			Right	false	Right	1
dbbf8220893d497d403bb9cdf49db7a4	.98-20200529-survey_fixmax	1.ID_4	113	239150	html-keyboard-response	0.0-113.0	cherries	37	1019	orange			Left	false	Left	1
dbbf8220893d497d403bb9cdf49db7a4	.98-20200529-survey_fixmax	1.ID_4	115	242068	html-keyboard-response	0.0-115.0	cherries	37	912	orange			Left	false	Left	1
dbbf8220893d497d403bb9cdf49db7a4	.98-20200529-survey_fixmax	1.ID_4	117	245151	html-keyboard-response	0.0-117.0	lemon	39	1078	kiwi			Right	false	Right	1
dbbf8220893d497d403bb9cdf49db7a4	.98-20200529-survey_fixmax	1.ID_4	119	248182	html-keyboard-response	0.0-119.0	melon	39	1025	pineapple			Right	false	Right	1
dbbf8220893d497d403bb9cdf49db7a4	.98-20200529-survey_fixmax	1.ID_4	121	251031	html-keyboard-response	0.0-121.0	melon	39	843	pineapple			Right	false	Right	1
dbbf8220893d497d403bb9cdf49db7a4	.98-20200529-survey_fixmax	1.ID_4	123	254380	html-keyboard-response	0.0-123.0	bananas	37	1343.000000000029	strawberry			Left	false	Left	1
dbbf8220893d497d403bb9cdf49db7a4	.98-20200529-survey_fixmax	1.ID_5	125	257261	html-keyboard-response	0.0-125.0	apple	39	874.0000000000291	coconut			Right	false	Right	1
dbbf8220893d497d403bb9cdf49db7a4	.98-20200529-survey_fixmax	1.ID_5	128	262439	html-keyboard-response	0.0-128.0	cherries	37	1169	orange			Left	false	Left	1
dbbf8220893d497d403bb9cdf49db7a4	.98-20200529-survey_fixmax	1.ID_5	130	265396	html-keyboard-response	0.0-130.0	pear	37	951	grape			Left	false	Left	1
dbbf8220893d497d403bb9cdf49db7a4	.98-20200529-survey_fixmax	1.ID_5	132	268435	html-keyboard-response	0.0-132.0	melon	39	1033	pineapple			Right	false	Right	1
dbbf8220893d497d403bb9cdf49db7a4	.98-20200529-survey_fixmax	1.ID_5	134	271251	html-keyboard-response	0.0-134.0	cherries	37	809	orange			Left	false	Left	1
dbbf8220893d497d403bb9cdf49db7a4	.98-20200529-survey_fixmax	1.ID_5	136	274302	html-keyboard-response	0.0-136.0	lemon	39	1045	kiwi			Right	false	Right	1
dbbf8220893d497d403bb9cdf49db7a4	.98-20200529-survey_fixmax	1.ID_5	138	277130	html-keyboard-response	0.0-138.0	lemon	39	821	kiwi			Right	false	Right	1
dbbf8220893d497d403bb9cdf49db7a4	.98-20200529-survey_fixmax	1.ID_5	140	280225	html-keyboard-response	0.0-140.0	melon	39	1088	pineapple			Right	false	Right	1
dbbf8220893d497d403bb9cdf49db7a4	.98-20200529-survey_fixmax	1.ID_5	142	283461	html-keyboard-response	0.0-142.0	bananas	37	1230	strawberry			Left	false	Left	1
dbbf8220893d497d403bb9cdf49db7a4	.98-20200529-survey_fixmax	1.ID_5	144	286407	html-keyboard-response	0.0-144.0	apple	39	939	coconut			Right	false	Right	1
dbbf8220893d497d403bb9cdf49db7a4	.98-20200529-survey_fixmax	1.ID_5	146	289318	html-keyboard-response	0.0-146.0	pear	37	904	grape			Left	false	Left	1
dbbf8220893d497d403bb9cdf49db7a4	.98-20200529-survey_fixmax	1.ID_5	148	292709	html-keyboard-response	0.0-148.0	bananas	37	1320.9999999999418	strawberry			Left	false	Left	1
dbbf8220893d497d403bb9cdf49db7a4	.98-20200529-survey_fixmax	1.ID_6	150	295877	html-keyboard-response	0.0-150.0	apple	39	1150	coconut			Right	false	Right	1
dbbf8220893d497d403bb9cdf49db7a4	.98-20200529-survey_fixmax	1.ID_6	153	304046	html-keyboard-response	0.0-153.0	lemon	39	4158.999999999942	kiwi			Right	false	Right	1
dbbf8220893d497d403bb9cdf49db7a4	.98-20200529-survey_fixmax	1.ID_6	155	309065	html-keyboard-response	0.0-155.0	melon	39	3012	pineapple			Right	false	Right	1
dbbf8220893d497d403bb9cdf49db7a4	.98-20200529-survey_fixmax	1.ID_6	157	311944	html-keyboard-response	0.0-157.0	bananas	37	872	strawberry			Left	false	Left	1
dbbf8220893d497d403bb9cdf49db7a4	.98-20200529-survey_fixmax	1.ID_6	159	314911	html-keyboard-response	0.0-159.0	cherries	37	960	orange			Left	false	Left	1
dbbf8220893d497d403bb9cdf49db7a4	.98-20200529-survey_fixmax	1.ID_6	161	318340	html-keyboard-response	0.0-161.0	lemon	39	1423.0000000000582	kiwi			Right	false	Right	1
dbbf8220893d497d403bb9cdf49db7a4	.98-20200529-survey_fixmax	1.ID_6	163	322013	html-keyboard-response	0.0-163.0	melon	39	1667.0000000000582	pineapple			Right	false	Right	1
dbbf8220893d497d403bb9cdf49db7a4	.98-20200529-survey_fixmax	1.ID_6	165	324917	html-keyboard-response	0.0-165.0	pear	37	897	grape			Left	false	Left	1
dbbf8220893d497d403bb9cdf49db7a4	.98-20200529-survey_fixmax	1.ID_6	167	327969	html-keyboard-response	0.0-167.0	bananas	37	1046	strawberry			Left	false	Left	1
dbbf8220893d497d403bb9cdf49db7a4	.98-20200529-survey_fixmax	1.ID_6	169	330744	html-keyboard-response	0.0-169.0	pear	37	769	grape			Left	false	Left	1
dbbf8220893d497d403bb9cdf49db7a4	.98-20200529-survey_fixmax	1.ID_6	171	333640	html-keyboard-response	0.0-171.0	cherries	37	889.9999999999418	orange			Left	false	Left	1
dbbf8220893d497d403bb9cdf49db7a4	.98-20200529-survey_fixmax	1.ID_6	173	336417	html-keyboard-response	0.0-173.0	apple	39	770	coconut			Right	false	Right	1
dbbf8220893d497d403bb9cdf49db7a4	.98-20200529-survey_fixmax	1.ID_7	175	339402	html-keyboard-response	0.0-175.0	bananas	37	978.9999999999418	strawberry			Left	false	Left	1
dbbf8220893d497d403bb9cdf49db7a4	.98-20200529-survey_fixmax	1.ID_7	178	344998	html-keyboard-response	0.0-178.0	melon	39	1586.9999999999418	pineapple			Right	false	Right	1
dbbf8220893d497d403bb9cdf49db7a4	.98-20200529-survey_fixmax	1.ID_7	180	347970	html-keyboard-response	0.0-180.0	apple	39	967	coconut			Right	false	Right	1
dbbf8220893d497d403bb9cdf49db7a4	.98-20200529-survey_fixmax	1.ID_7	182	351567	html-keyboard-response	0.0-182.0	lemon	39	1590.9999999999418	kiwi			Right	false	Right	1
dbbf8220893d497d403bb9cdf49db7a4	.98-20200529-survey_fixmax	1.ID_7	184	354476	html-keyboard-response	0.0-184.0	bananas	37	902.0000000000582	strawberry			Left	false	Left	1
dbbf8220893d497d403bb9cdf49db7a4	.98-20200529-survey_fixmax	1.ID_7	186	358157	html-keyboard-response	0.0-186.0	melon	39	1675	pineapple			Right	false	Right	1
dbbf8220893d497d403bb9cdf49db7a4	.98-20200529-survey_fixmax	1.ID_7	188	361323	html-keyboard-response	0.0-188.0	pear	37	1160	grape			Left	false	Left	1
dbbf8220893d497d403bb9cdf49db7a4	.98-20200529-survey_fixmax	1.ID_7	190	364282	html-keyboard-response	0.0-190.0	cherries	37	953	orange			Left	false	Left	1
dbbf8220893d497d403bb9cdf49db7a4	.98-20200529-survey_fixmax	1.ID_7	192	367085	html-keyboard-response	0.0-192.0	pear	37	796	grape			Left	false	Left	1
dbbf8220893d497d403bb9cdf49db7a4	.98-20200529-survey_fixmax	1.ID_7	194	369844	html-keyboard-response	0.0-194.0	cherries	37	753	orange			Left	false	Left	1
dbbf8220893d497d403bb9cdf49db7a4	.98-20200529-survey_fixmax	1.ID_7	196	372850	html-keyboard-response	0.0-196.0	lemon	39	998.9999999999418	kiwi			Right	false	Right	1
dbbf8220893d497d403bb9cdf49db7a4	.98-20200529-survey_fixmax	1.ID_7	198	375639	html-keyboard-response	0.0-198.0	apple	39	783	coconut			Right	false	Right	1
dbbf8220893d497d403bb9cdf49db7a4	.98-20200529-survey_fixmax	2.OD	202	425758	html-keyboard-response	0.0-202.0		37	12255		grape	kiwi			Left	1
dbbf8220893d497d403bb9cdf49db7a4	.98-20200529-survey_fixmax	2.OD	203	428032	html-keyboard-response	0.0-203.0		39	1272		coconut	grape			Right	1
dbbf8220893d497d403bb9cdf49db7a4	.98-20200529-survey_fixmax	2.OD	204	430409	html-keyboard-response	0.0-204.0		39	1375		coconut	strawberry			Right	1
dbbf8220893d497d403bb9cdf49db7a4	.98-20200529-survey_fixmax	2.OD	205	434325	html-keyboard-response	0.0-205.0		39	2913.999999999942		kiwi	strawberry			Right	1
dbbf8220893d497d403bb9cdf49db7a4	.98-20200529-survey_fixmax	2.OD	206	437654	html-keyboard-response	0.0-206.0		39	2327		pineapple	orange			Right	1
dbbf8220893d497d403bb9cdf49db7a4	.98-20200529-survey_fixmax	2.OD	207	439623	html-keyboard-response	0.0-207.0		39	967		coconut	strawberry			Right	1
dbbf8220893d497d403bb9cdf49db7a4	.98-20200529-survey_fixmax	2.OD	208	442038	html-keyboard-response	0.0-208.0		37	1412		orange	pineapple			Left	1
dbbf8220893d497d403bb9cdf49db7a4	.98-20200529-survey_fixmax	2.OD	209	444610	html-keyboard-response	0.0-209.0		37	1569		strawberry	coconut			Left	1
dbbf8220893d497d403bb9cdf49db7a4	.98-20200529-survey_fixmax	2.OD	210	447220	html-keyboard-response	0.0-210.0		37	1606.9999999999418		grape	coconut			Left	1
dbbf8220893d497d403bb9cdf49db7a4	.98-20200529-survey_fixmax	2.OD	211	450641	html-keyboard-response	0.0-211.0		39	2420		kiwi	orange			Right	1
dbbf8220893d497d403bb9cdf49db7a4	.98-20200529-survey_fixmax	2.OD	212	453287	html-keyboard-response	0.0-212.0		37	1644		orange	pineapple			Left	1
dbbf8220893d497d403bb9cdf49db7a4	.98-20200529-survey_fixmax	2.OD	213	455131	html-keyboard-response	0.0-213.0		37	842		orange	coconut			Left	1
dbbf8220893d497d403bb9cdf49db7a4	.98-20200529-survey_fixmax	2.OD	214	457097	html-keyboard-response	0.0-214.0		39	964		pineapple	orange			Right	1
dbbf8220893d497d403bb9cdf49db7a4	.98-20200529-survey_fixmax	2.OD	215	459105	html-keyboard-response	0.0-215.0		37	1005		strawberry	coconut			Left	1
dbbf8220893d497d403bb9cdf49db7a4	.98-20200529-survey_fixmax	2.OD	216	461390	html-keyboard-response	0.0-216.0		37	1281.9999999999418		grape	kiwi			Left	1
dbbf8220893d497d403bb9cdf49db7a4	.98-20200529-survey_fixmax	2.OD	217	463937	html-keyboard-response	0.0-217.0		39	1545		pineapple	grape			Right	1
dbbf8220893d497d403bb9cdf49db7a4	.98-20200529-survey_fixmax	2.OD	218	466203	html-keyboard-response	0.0-218.0		37	1264		strawberry	pineapple			Left	1
dbbf8220893d497d403bb9cdf49db7a4	.98-20200529-survey_fixmax	2.OD	219	468175	html-keyboard-response	0.0-219.0		39	970		pineapple	grape			Right	1
dbbf8220893d497d403bb9cdf49db7a4	.98-20200529-survey_fixmax	2.OD	220	470204	html-keyboard-response	0.0-220.0		39	1026		coconut	orange			Right	1
dbbf8220893d497d403bb9cdf49db7a4	.98-20200529-survey_fixmax	2.OD	221	472956	html-keyboard-response	0.0-221.0		37	1749		orange	kiwi			Left	1
dbbf8220893d497d403bb9cdf49db7a4	.98-20200529-survey_fixmax	2.OD	222	474529	html-keyboard-response	0.0-222.0		37	570.9999999999418		orange	coconut			Left	1
dbbf8220893d497d403bb9cdf49db7a4	.98-20200529-survey_fixmax	2.OD	223	476473	html-keyboard-response	0.0-223.0		37	942		grape	coconut			Left	1
dbbf8220893d497d403bb9cdf49db7a4	.98-20200529-survey_fixmax	2.OD	224	478319	html-keyboard-response	0.0-224.0		37	842.9999999999418		orange	coconut			Left	1
dbbf8220893d497d403bb9cdf49db7a4	.98-20200529-survey_fixmax	2.OD	225	480236	html-keyboard-response	0.0-225.0		37	914.9999999999418		strawberry	pineapple			Left	1
dbbf8220893d497d403bb9cdf49db7a4	.98-20200529-survey_fixmax	2.OD	226	482061	html-keyboard-response	0.0-226.0		37	822		strawberry	kiwi			Left	1
dbbf8220893d497d403bb9cdf49db7a4	.98-20200529-survey_fixmax	2.OD	227	483865	html-keyboard-response	0.0-227.0		37	802		grape	coconut			Left	1
dbbf8220893d497d403bb9cdf49db7a4	.98-20200529-survey_fixmax	2.OD	228	485550	html-keyboard-response	0.0-228.0		37	683		grape	pineapple			Left	1
dbbf8220893d497d403bb9cdf49db7a4	.98-20200529-survey_fixmax	2.OD	229	487350	html-keyboard-response	0.0-229.0		37	798.0000000000582		strawberry	kiwi			Left	1
dbbf8220893d497d403bb9cdf49db7a4	.98-20200529-survey_fixmax	2.OD	230	489266	html-keyboard-response	0.0-230.0		39	914		kiwi	orange			Right	1
dbbf8220893d497d403bb9cdf49db7a4	.98-20200529-survey_fixmax	2.OD	231	491310	html-keyboard-response	0.0-231.0		37	1041.9999999999418		grape	kiwi			Left	1
dbbf8220893d497d403bb9cdf49db7a4	.98-20200529-survey_fixmax	2.OD	232	493365	html-keyboard-response	0.0-232.0		39	1051		pineapple	strawberry			Right	1
dbbf8220893d497d403bb9cdf49db7a4	.98-20200529-survey_fixmax	2.OD	233	495377	html-keyboard-response	0.0-233.0		37	1009		strawberry	kiwi			Left	1
dbbf8220893d497d403bb9cdf49db7a4	.98-20200529-survey_fixmax	2.OD	234	497880	html-keyboard-response	0.0-234.0		37	1501		grape	pineapple			Left	1
dbbf8220893d497d403bb9cdf49db7a4	.98-20200529-survey_fixmax	2.OD	235	499667	html-keyboard-response	0.0-235.0		37	785.0000000000582		strawberry	pineapple			Left	1
dbbf8220893d497d403bb9cdf49db7a4	.98-20200529-survey_fixmax	2.OD	236	502291	html-keyboard-response	0.0-236.0		39	1622		kiwi	grape			Right	1
dbbf8220893d497d403bb9cdf49db7a4	.98-20200529-survey_fixmax	2.OD	237	504524	html-keyboard-response	0.0-237.0		39	1230		kiwi	orange			Right	1
dbbf8220893d497d403bb9cdf49db7a4	.98-20200529-survey_fixmax	3.DD_0	241	538661	html-keyboard-response	0.0-241.0	bananas	37	1757.0000000001164	strawberry			Left	false	Left	1
dbbf8220893d497d403bb9cdf49db7a4	.98-20200529-survey_fixmax	3.DD_0	242	541090	html-keyboard-response	0.0-242.0	cherries	37	1423.9999999998836	orange			Left	false	Left	1
dbbf8220893d497d403bb9cdf49db7a4	.98-20200529-survey_fixmax	3.DD_0	243	543419	html-keyboard-response	0.0-243.0	bananas	37	1324	strawberry			Left	false	Left	1
dbbf8220893d497d403bb9cdf49db7a4	.98-20200529-survey_fixmax	3.DD_0	244	545738	html-keyboard-response	0.0-244.0	pear	37	1314.0000000001164	grape			Left	false	Left	1
dbbf8220893d497d403bb9cdf49db7a4	.98-20200529-survey_fixmax	3.DD_0	245	548744	html-keyboard-response	0.0-245.0	melon			pineapple			None	true	None	0
dbbf8220893d497d403bb9cdf49db7a4	.98-20200529-survey_fixmax	3.DD_0	246	551750	html-keyboard-response	0.0-246.0	lemon			kiwi			None	true	None	0
dbbf8220893d497d403bb9cdf49db7a4	.98-20200529-survey_fixmax	3.DD_0	247	553758	html-keyboard-response	0.0-247.0	cherries	37	1002	orange			Left	false	Left	1
dbbf8220893d497d403bb9cdf49db7a4	.98-20200529-survey_fixmax	3.DD_0	248	555487	html-keyboard-response	0.0-248.0	pear	37	725.0000000001164	grape			Left	false	Left	1
dbbf8220893d497d403bb9cdf49db7a4	.98-20200529-survey_fixmax	3.DD_0	249	557603	html-keyboard-response	0.0-249.0	apple	39	1109.9999999998836	coconut			Right	false	Right	1
dbbf8220893d497d403bb9cdf49db7a4	.98-20200529-survey_fixmax	3.DD_0	250	559177	html-keyboard-response	0.0-250.0	apple	39	568.9999999998836	coconut			Right	false	Right	1
dbbf8220893d497d403bb9cdf49db7a4	.98-20200529-survey_fixmax	3.DD_0	251	562183	html-keyboard-response	0.0-251.0	melon			pineapple			None	true	None	0
dbbf8220893d497d403bb9cdf49db7a4	.98-20200529-survey_fixmax	3.DD_0	252	565189	html-keyboard-response	0.0-252.0	lemon			kiwi			None	true	None	0
dbbf8220893d497d403bb9cdf49db7a4	.98-20200529-survey_fixmax	3.DD_1	255	574174	html-keyboard-response	0.0-255.0	pear	37	974	grape			Left	false	Left	1
dbbf8220893d497d403bb9cdf49db7a4	.98-20200529-survey_fixmax	3.DD_1	256	575698	html-keyboard-response	0.0-256.0	pear	37	520	grape			Left	false	Left	1
dbbf8220893d497d403bb9cdf49db7a4	.98-20200529-survey_fixmax	3.DD_1	257	577365	html-keyboard-response	0.0-257.0	bananas	37	662	strawberry			Left	false	Left	1
dbbf8220893d497d403bb9cdf49db7a4	.98-20200529-survey_fixmax	3.DD_1	258	578842	html-keyboard-response	0.0-258.0	bananas	37	474	strawberry			Left	false	Left	1
dbbf8220893d497d403bb9cdf49db7a4	.98-20200529-survey_fixmax	3.DD_1	259	581848	html-keyboard-response	0.0-259.0	melon			pineapple			None	true	None	0
dbbf8220893d497d403bb9cdf49db7a4	.98-20200529-survey_fixmax	3.DD_1	260	583669	html-keyboard-response	0.0-260.0	apple	39	816	coconut			Right	false	Right	1
dbbf8220893d497d403bb9cdf49db7a4	.98-20200529-survey_fixmax	3.DD_1	261	585526	html-keyboard-response	0.0-261.0	cherries	37	853	orange			Left	false	Left	1
dbbf8220893d497d403bb9cdf49db7a4	.98-20200529-survey_fixmax	3.DD_1	262	588533	html-keyboard-response	0.0-262.0	lemon			kiwi			None	true	None	0
dbbf8220893d497d403bb9cdf49db7a4	.98-20200529-survey_fixmax	3.DD_1	263	591538	html-keyboard-response	0.0-263.0	lemon			kiwi			None	true	None	0
dbbf8220893d497d403bb9cdf49db7a4	.98-20200529-survey_fixmax	3.DD_1	264	593537	html-keyboard-response	0.0-264.0	cherries	37	995	orange			Left	false	Left	1
dbbf8220893d497d403bb9cdf49db7a4	.98-20200529-survey_fixmax	3.DD_1	265	596543	html-keyboard-response	0.0-265.0	melon			pineapple			None	true	None	0
dbbf8220893d497d403bb9cdf49db7a4	.98-20200529-survey_fixmax	3.DD_1	266	598246	html-keyboard-response	0.0-266.0	apple	39	698	coconut			Right	false	Right	1
dbbf8220893d497d403bb9cdf49db7a4	.98-20200529-survey_fixmax	3.DD_2	269	607246	html-keyboard-response	0.0-269.0	bananas	37	989.9999999998836	strawberry			Left	false	Left	1
dbbf8220893d497d403bb9cdf49db7a4	.98-20200529-survey_fixmax	3.DD_2	270	609068	html-keyboard-response	0.0-270.0	melon	39	817	pineapple			Right	false	Right	1
dbbf8220893d497d403bb9cdf49db7a4	.98-20200529-survey_fixmax	3.DD_2	271	610738	html-keyboard-response	0.0-271.0	apple	39	665	coconut			Right	false	Right	1
dbbf8220893d497d403bb9cdf49db7a4	.98-20200529-survey_fixmax	3.DD_2	272	613744	html-keyboard-response	0.0-272.0	lemon			kiwi			None	true	None	0
dbbf8220893d497d403bb9cdf49db7a4	.98-20200529-survey_fixmax	3.DD_2	273	615630	html-keyboard-response	0.0-273.0	cherries	37	881	orange			Left	false	Left	1
dbbf8220893d497d403bb9cdf49db7a4	.98-20200529-survey_fixmax	3.DD_2	274	617239	html-keyboard-response	0.0-274.0	apple	39	604	coconut			Right	false	Right	1
dbbf8220893d497d403bb9cdf49db7a4	.98-20200529-survey_fixmax	3.DD_2	275	618875	html-keyboard-response	0.0-275.0	bananas	37	631	strawberry			Left	false	Left	1
dbbf8220893d497d403bb9cdf49db7a4	.98-20200529-survey_fixmax	3.DD_2	276	621880	html-keyboard-response	0.0-276.0	pear			grape			None	true	None	0
dbbf8220893d497d403bb9cdf49db7a4	.98-20200529-survey_fixmax	3.DD_2	277	623691	html-keyboard-response	0.0-277.0	melon	39	806	pineapple			Right	false	Right	1
dbbf8220893d497d403bb9cdf49db7a4	.98-20200529-survey_fixmax	3.DD_2	278	626698	html-keyboard-response	0.0-278.0	lemon			kiwi			None	true	None	0
dbbf8220893d497d403bb9cdf49db7a4	.98-20200529-survey_fixmax	3.DD_2	279	628712	html-keyboard-response	0.0-279.0	cherries	37	1009	orange			Left	false	Left	1
dbbf8220893d497d403bb9cdf49db7a4	.98-20200529-survey_fixmax	3.DD_2	280	631718	html-keyboard-response	0.0-280.0	pear			grape			None	true	None	0
dbbf8220893d497d403bb9cdf49db7a4	.98-20200529-survey_fixmax	3.DD_3	283	640580	html-keyboard-response	0.0-283.0	apple	39	851	coconut			Right	false	Right	1
dbbf8220893d497d403bb9cdf49db7a4	.98-20200529-survey_fixmax	3.DD_3	284	642558	html-keyboard-response	0.0-284.0	lemon	39	974	kiwi			Right	false	Right	1
dbbf8220893d497d403bb9cdf49db7a4	.98-20200529-survey_fixmax	3.DD_3	285	645564	html-keyboard-response	0.0-285.0	bananas			strawberry			None	true	None	0
dbbf8220893d497d403bb9cdf49db7a4	.98-20200529-survey_fixmax	3.DD_3	286	647319	html-keyboard-response	0.0-286.0	melon	39	748	pineapple			Right	false	Right	1
dbbf8220893d497d403bb9cdf49db7a4	.98-20200529-survey_fixmax	3.DD_3	287	648910	html-keyboard-response	0.0-287.0	apple	39	586.0000000001164	coconut			Right	false	Right	1
dbbf8220893d497d403bb9cdf49db7a4	.98-20200529-survey_fixmax	3.DD_3	288	651916	html-keyboard-response	0.0-288.0	pear			grape			None	true	None	0
dbbf8220893d497d403bb9cdf49db7a4	.98-20200529-survey_fixmax	3.DD_3	289	653648	html-keyboard-response	0.0-289.0	cherries	37	727	orange			Left	false	Left	1
dbbf8220893d497d403bb9cdf49db7a4	.98-20200529-survey_fixmax	3.DD_3	290	655360	html-keyboard-response	0.0-290.0	melon	39	707	pineapple			Right	false	Right	1
dbbf8220893d497d403bb9cdf49db7a4	.98-20200529-survey_fixmax	3.DD_3	291	656989	html-keyboard-response	0.0-291.0	cherries	37	624	orange			Left	false	Left	1
dbbf8220893d497d403bb9cdf49db7a4	.98-20200529-survey_fixmax	3.DD_3	292	658858	html-keyboard-response	0.0-292.0	lemon	39	863	kiwi			Right	false	Right	1
dbbf8220893d497d403bb9cdf49db7a4	.98-20200529-survey_fixmax	3.DD_3	293	661864	html-keyboard-response	0.0-293.0	pear			grape			None	true	None	0
dbbf8220893d497d403bb9cdf49db7a4	.98-20200529-survey_fixmax	3.DD_3	294	664870	html-keyboard-response	0.0-294.0	bananas			strawberry			None	true	None	0
dbbf8220893d497d403bb9cdf49db7a4	.98-20200529-survey_fixmax	3.DD_4	297	674882	html-keyboard-response	0.0-297.0	cherries			orange			None	true	None	0
dbbf8220893d497d403bb9cdf49db7a4	.98-20200529-survey_fixmax	3.DD_4	298	676624	html-keyboard-response	0.0-298.0	lemon	39	737	kiwi			Right	false	Right	1
dbbf8220893d497d403bb9cdf49db7a4	.98-20200529-survey_fixmax	3.DD_4	299	679630	html-keyboard-response	0.0-299.0	cherries			orange			None	true	None	0
dbbf8220893d497d403bb9cdf49db7a4	.98-20200529-survey_fixmax	3.DD_4	300	682637	html-keyboard-response	0.0-300.0	pear			grape			None	true	None	0
dbbf8220893d497d403bb9cdf49db7a4	.98-20200529-survey_fixmax	3.DD_4	301	684293	html-keyboard-response	0.0-301.0	apple	39	651	coconut			Right	false	Right	1
dbbf8220893d497d403bb9cdf49db7a4	.98-20200529-survey_fixmax	3.DD_4	302	687299	html-keyboard-response	0.0-302.0	pear			grape			None	true	None	0
dbbf8220893d497d403bb9cdf49db7a4	.98-20200529-survey_fixmax	3.DD_4	303	689047	html-keyboard-response	0.0-303.0	bananas	37	743	strawberry			Left	false	Left	1
dbbf8220893d497d403bb9cdf49db7a4	.98-20200529-survey_fixmax	3.DD_4	304	690700	html-keyboard-response	0.0-304.0	melon	39	648	pineapple			Right	false	Right	1
dbbf8220893d497d403bb9cdf49db7a4	.98-20200529-survey_fixmax	3.DD_4	305	692945	html-keyboard-response	0.0-305.0	bananas	37	1240	strawberry			Left	false	Left	1
dbbf8220893d497d403bb9cdf49db7a4	.98-20200529-survey_fixmax	3.DD_4	306	694510	html-keyboard-response	0.0-306.0	melon	39	560	pineapple			Right	false	Right	1
dbbf8220893d497d403bb9cdf49db7a4	.98-20200529-survey_fixmax	3.DD_4	307	696460	html-keyboard-response	0.0-307.0	lemon	39	945	kiwi			Right	false	Right	1
dbbf8220893d497d403bb9cdf49db7a4	.98-20200529-survey_fixmax	3.DD_4	308	698070	html-keyboard-response	0.0-308.0	apple	39	606	coconut			Right	false	Right	1
dbbf8220893d497d403bb9cdf49db7a4	.98-20200529-survey_fixmax	3.DD_5	311	708081	html-keyboard-response	0.0-311.0	apple			coconut			None	true	None	0
dbbf8220893d497d403bb9cdf49db7a4	.98-20200529-survey_fixmax	3.DD_5	312	711086	html-keyboard-response	0.0-312.0	melon			pineapple			None	true	None	0
dbbf8220893d497d403bb9cdf49db7a4	.98-20200529-survey_fixmax	3.DD_5	313	713028	html-keyboard-response	0.0-313.0	pear	37	937	grape			Left	false	Left	1
dbbf8220893d497d403bb9cdf49db7a4	.98-20200529-survey_fixmax	3.DD_5	314	714820	html-keyboard-response	0.0-314.0	lemon	39	786	kiwi			Right	false	Right	1
dbbf8220893d497d403bb9cdf49db7a4	.98-20200529-survey_fixmax	3.DD_5	315	716723	html-keyboard-response	0.0-315.0	bananas	37	898	strawberry			Left	false	Left	1
dbbf8220893d497d403bb9cdf49db7a4	.98-20200529-survey_fixmax	3.DD_5	316	718293	html-keyboard-response	0.0-316.0	bananas	37	566	strawberry			Left	false	Left	1
dbbf8220893d497d403bb9cdf49db7a4	.98-20200529-survey_fixmax	3.DD_5	317	721300	html-keyboard-response	0.0-317.0	melon			pineapple			None	true	None	0
dbbf8220893d497d403bb9cdf49db7a4	.98-20200529-survey_fixmax	3.DD_5	318	723056	html-keyboard-response	0.0-318.0	lemon	39	752	kiwi			Right	false	Right	1
dbbf8220893d497d403bb9cdf49db7a4	.98-20200529-survey_fixmax	3.DD_5	319	724815	html-keyboard-response	0.0-319.0	cherries	37	754	orange			Left	false	Left	1
dbbf8220893d497d403bb9cdf49db7a4	.98-20200529-survey_fixmax	3.DD_5	320	726729	html-keyboard-response	0.0-320.0	pear	37	909	grape			Left	false	Left	1
dbbf8220893d497d403bb9cdf49db7a4	.98-20200529-survey_fixmax	3.DD_5	321	728371	html-keyboard-response	0.0-321.0	apple	39	637	coconut			None	true	Right	-1
dbbf8220893d497d403bb9cdf49db7a4	.98-20200529-survey_fixmax	3.DD_5	322	730126	html-keyboard-response	0.0-322.0	cherries	37	750	orange			Left	false	Left	1
dbbf8220893d497d403bb9cdf49db7a4	.98-20200529-survey_fixmax	3.DD_6	325	739373	html-keyboard-response	0.0-325.0	melon	39	1237	pineapple			Right	false	Right	1
dbbf8220893d497d403bb9cdf49db7a4	.98-20200529-survey_fixmax	3.DD_6	326	740968	html-keyboard-response	0.0-326.0	melon	39	590	pineapple			Right	false	Right	1
dbbf8220893d497d403bb9cdf49db7a4	.98-20200529-survey_fixmax	3.DD_6	327	742651	html-keyboard-response	0.0-327.0	lemon	39	677	kiwi			Right	false	Right	1
dbbf8220893d497d403bb9cdf49db7a4	.98-20200529-survey_fixmax	3.DD_6	328	744564	html-keyboard-response	0.0-328.0	pear	37	908	grape			Left	false	Left	1
dbbf8220893d497d403bb9cdf49db7a4	.98-20200529-survey_fixmax	3.DD_6	329	747571	html-keyboard-response	0.0-329.0	apple			coconut			None	true	None	0
dbbf8220893d497d403bb9cdf49db7a4	.98-20200529-survey_fixmax	3.DD_6	330	749250	html-keyboard-response	0.0-330.0	cherries	37	673	orange			Left	false	Left	1
dbbf8220893d497d403bb9cdf49db7a4	.98-20200529-survey_fixmax	3.DD_6	331	751176	html-keyboard-response	0.0-331.0	pear	37	922	grape			Left	false	Left	1
dbbf8220893d497d403bb9cdf49db7a4	.98-20200529-survey_fixmax	3.DD_6	332	753049	html-keyboard-response	0.0-332.0	lemon	39	868	kiwi			Right	false	Right	1
dbbf8220893d497d403bb9cdf49db7a4	.98-20200529-survey_fixmax	3.DD_6	333	756055	html-keyboard-response	0.0-333.0	apple			coconut			None	true	None	0
dbbf8220893d497d403bb9cdf49db7a4	.98-20200529-survey_fixmax	3.DD_6	334	757756	html-keyboard-response	0.0-334.0	cherries	37	697	orange			Left	false	Left	1
dbbf8220893d497d403bb9cdf49db7a4	.98-20200529-survey_fixmax	3.DD_6	335	760762	html-keyboard-response	0.0-335.0	bananas			strawberry			None	true	None	0
dbbf8220893d497d403bb9cdf49db7a4	.98-20200529-survey_fixmax	3.DD_6	336	763769	html-keyboard-response	0.0-336.0	bananas			strawberry			None	true	None	0
dbbf8220893d497d403bb9cdf49db7a4	.98-20200529-survey_fixmax	3.DD_7	339	772510	html-keyboard-response	0.0-339.0	lemon	39	731	kiwi			Right	false	Right	1
dbbf8220893d497d403bb9cdf49db7a4	.98-20200529-survey_fixmax	3.DD_7	340	774717	html-keyboard-response	0.0-340.0	bananas	37	1201.9999999998836	strawberry			Left	false	Left	1
dbbf8220893d497d403bb9cdf49db7a4	.98-20200529-survey_fixmax	3.DD_7	341	777722	html-keyboard-response	0.0-341.0	cherries			orange			None	true	None	0
dbbf8220893d497d403bb9cdf49db7a4	.98-20200529-survey_fixmax	3.DD_7	342	779368	html-keyboard-response	0.0-342.0	lemon	39	641.9999999998836	kiwi			Right	false	Right	1
dbbf8220893d497d403bb9cdf49db7a4	.98-20200529-survey_fixmax	3.DD_7	343	782375	html-keyboard-response	0.0-343.0	apple			coconut			None	true	None	0
dbbf8220893d497d403bb9cdf49db7a4	.98-20200529-survey_fixmax	3.DD_7	344	784048	html-keyboard-response	0.0-344.0	melon	39	667.9999999998836	pineapple			Right	false	Right	1
dbbf8220893d497d403bb9cdf49db7a4	.98-20200529-survey_fixmax	3.DD_7	345	785797	html-keyboard-response	0.0-345.0	pear	37	743.9999999998836	grape			Left	false	Left	1
dbbf8220893d497d403bb9cdf49db7a4	.98-20200529-survey_fixmax	3.DD_7	346	787595	html-keyboard-response	0.0-346.0	bananas	37	791.9999999998836	strawberry			Left	false	Left	1
dbbf8220893d497d403bb9cdf49db7a4	.98-20200529-survey_fixmax	3.DD_7	347	790601	html-keyboard-response	0.0-347.0	cherries			orange			None	true	None	0
dbbf8220893d497d403bb9cdf49db7a4	.98-20200529-survey_fixmax	3.DD_7	348	792276	html-keyboard-response	0.0-348.0	melon	39	669.9999999998836	pineapple			Right	false	Right	1
dbbf8220893d497d403bb9cdf49db7a4	.98-20200529-survey_fixmax	3.DD_7	349	795283	html-keyboard-response	0.0-349.0	apple			coconut			None	true	None	0
dbbf8220893d497d403bb9cdf49db7a4	.98-20200529-survey_fixmax	3.DD_7	350	797009	html-keyboard-response	0.0-350.0	pear	37	721	grape			Left	false	Left	1
dbbf8220893d497d403bb9cdf49db7a4	.98-20200529-survey_fixmax	3.DD_8	353	805722	html-keyboard-response	0.0-353.0	melon	39	704	pineapple			Right	false	Right	1
dbbf8220893d497d403bb9cdf49db7a4	.98-20200529-survey_fixmax	3.DD_8	354	807435	html-keyboard-response	0.0-354.0	lemon	39	707	kiwi			Right	false	Right	1
dbbf8220893d497d403bb9cdf49db7a4	.98-20200529-survey_fixmax	3.DD_8	355	809182	html-keyboard-response	0.0-355.0	pear	37	742	grape			Left	false	Left	1
dbbf8220893d497d403bb9cdf49db7a4	.98-20200529-survey_fixmax	3.DD_8	356	812189	html-keyboard-response	0.0-356.0	cherries			orange			None	true	None	0
dbbf8220893d497d403bb9cdf49db7a4	.98-20200529-survey_fixmax	3.DD_8	357	813862	html-keyboard-response	0.0-357.0	apple	39	668	coconut			Right	false	Right	1
dbbf8220893d497d403bb9cdf49db7a4	.98-20200529-survey_fixmax	3.DD_8	358	815688	html-keyboard-response	0.0-358.0	lemon	39	821.0000000001164	kiwi			Right	false	Right	1
dbbf8220893d497d403bb9cdf49db7a4	.98-20200529-survey_fixmax	3.DD_8	359	817555	html-keyboard-response	0.0-359.0	apple	39	862	coconut			Right	false	Right	1
dbbf8220893d497d403bb9cdf49db7a4	.98-20200529-survey_fixmax	3.DD_8	360	820562	html-keyboard-response	0.0-360.0	bananas			strawberry			None	true	None	0
dbbf8220893d497d403bb9cdf49db7a4	.98-20200529-survey_fixmax	3.DD_8	361	822296	html-keyboard-response	0.0-361.0	melon	39	728	pineapple			Right	false	Right	1
dbbf8220893d497d403bb9cdf49db7a4	.98-20200529-survey_fixmax	3.DD_8	362	825301	html-keyboard-response	0.0-362.0	cherries			orange			None	true	None	0
dbbf8220893d497d403bb9cdf49db7a4	.98-20200529-survey_fixmax	3.DD_8	363	828307	html-keyboard-response	0.0-363.0	bananas			strawberry			None	true	None	0
dbbf8220893d497d403bb9cdf49db7a4	.98-20200529-survey_fixmax	3.DD_8	364	830000	html-keyboard-response	0.0-364.0	pear	37	687.9999999998836	grape			Left	false	Left	1
dbbf8220893d497d403bb9cdf49db7a4	.98-20200529-survey_fixmax	4.SOA_0	368	867660	html-keyboard-response	0.0-368.0	cherries	37	1571	orange			Left	false	Left	1
dbbf8220893d497d403bb9cdf49db7a4	.98-20200529-survey_fixmax	4.SOA_0	369	870048	html-keyboard-response	0.0-369.0	pear	37	1381	grape			Left	false	Left	1
dbbf8220893d497d403bb9cdf49db7a4	.98-20200529-survey_fixmax	4.SOA_0	370	872146	html-keyboard-response	0.0-370.0	apple	39	1093.9999999998836	coconut			Right	false	Right	1
dbbf8220893d497d403bb9cdf49db7a4	.98-20200529-survey_fixmax	4.SOA_0	371	875158	html-keyboard-response	0.0-371.0	lemon			kiwi			None	true	None	0
dbbf8220893d497d403bb9cdf49db7a4	.98-20200529-survey_fixmax	4.SOA_0	372	877013	html-keyboard-response	0.0-372.0	pear	37	849.9999999998836	grape			Left	false	Left	1
dbbf8220893d497d403bb9cdf49db7a4	.98-20200529-survey_fixmax	4.SOA_0	373	879601	html-keyboard-response	0.0-373.0	bananas	37	1583	strawberry			Left	false	Left	1
dbbf8220893d497d403bb9cdf49db7a4	.98-20200529-survey_fixmax	4.SOA_0	374	882607	html-keyboard-response	0.0-374.0	melon			pineapple			None	true	None	0
dbbf8220893d497d403bb9cdf49db7a4	.98-20200529-survey_fixmax	4.SOA_0	375	884641	html-keyboard-response	0.0-375.0	cherries	37	1027	orange			Left	false	Left	1
dbbf8220893d497d403bb9cdf49db7a4	.98-20200529-survey_fixmax	4.SOA_0	376	886795	html-keyboard-response	0.0-376.0	apple	39	1149	coconut			Right	false	Right	1
dbbf8220893d497d403bb9cdf49db7a4	.98-20200529-survey_fixmax	4.SOA_0	377	889801	html-keyboard-response	0.0-377.0	lemon			kiwi			None	true	None	0
dbbf8220893d497d403bb9cdf49db7a4	.98-20200529-survey_fixmax	4.SOA_0	378	892807	html-keyboard-response	0.0-378.0	melon			pineapple			None	true	None	0
dbbf8220893d497d403bb9cdf49db7a4	.98-20200529-survey_fixmax	4.SOA_0	379	894486	html-keyboard-response	0.0-379.0	bananas	37	672	strawberry			Left	false	Left	1
dbbf8220893d497d403bb9cdf49db7a4	.98-20200529-survey_fixmax	4.SOA_1	382	903612	html-keyboard-response	0.0-382.0	apple	39	1114	coconut			Right	false	Right	1
dbbf8220893d497d403bb9cdf49db7a4	.98-20200529-survey_fixmax	4.SOA_1	383	905162	html-keyboard-response	0.0-383.0	apple	39	544	coconut			Right	false	Right	1
dbbf8220893d497d403bb9cdf49db7a4	.98-20200529-survey_fixmax	4.SOA_1	384	907125	html-keyboard-response	0.0-384.0	cherries	37	957	orange			Left	false	Left	1
dbbf8220893d497d403bb9cdf49db7a4	.98-20200529-survey_fixmax	4.SOA_1	385	908734	html-keyboard-response	0.0-385.0	pear	37	604	grape			Left	false	Left	1
dbbf8220893d497d403bb9cdf49db7a4	.98-20200529-survey_fixmax	4.SOA_1	386	911740	html-keyboard-response	0.0-386.0	melon			pineapple			None	true	None	0
dbbf8220893d497d403bb9cdf49db7a4	.98-20200529-survey_fixmax	4.SOA_1	387	914747	html-keyboard-response	0.0-387.0	lemon			kiwi			None	true	None	0
dbbf8220893d497d403bb9cdf49db7a4	.98-20200529-survey_fixmax	4.SOA_1	388	916476	html-keyboard-response	0.0-388.0	bananas	37	723	strawberry			Left	false	Left	1
dbbf8220893d497d403bb9cdf49db7a4	.98-20200529-survey_fixmax	4.SOA_1	389	918109	html-keyboard-response	0.0-389.0	pear	37	627	grape			Left	false	Left	1
dbbf8220893d497d403bb9cdf49db7a4	.98-20200529-survey_fixmax	4.SOA_1	390	919954	html-keyboard-response	0.0-390.0	cherries	37	840	orange			Left	false	Left	1
dbbf8220893d497d403bb9cdf49db7a4	.98-20200529-survey_fixmax	4.SOA_1	391	922960	html-keyboard-response	0.0-391.0	melon			pineapple			None	true	None	0
dbbf8220893d497d403bb9cdf49db7a4	.98-20200529-survey_fixmax	4.SOA_1	392	925457	html-keyboard-response	0.0-392.0	bananas	37	1493	strawberry			Left	false	Left	1
dbbf8220893d497d403bb9cdf49db7a4	.98-20200529-survey_fixmax	4.SOA_1	393	928463	html-keyboard-response	0.0-393.0	lemon			kiwi			None	true	None	0
dbbf8220893d497d403bb9cdf49db7a4	.98-20200529-survey_fixmax	4.SOA_2	396	937545	html-keyboard-response	0.0-396.0	melon	39	1071	pineapple			Right	false	Right	1
dbbf8220893d497d403bb9cdf49db7a4	.98-20200529-survey_fixmax	4.SOA_2	397	939450	html-keyboard-response	0.0-397.0	apple	39	902.0000000001164	coconut			Right	false	Right	1
dbbf8220893d497d403bb9cdf49db7a4	.98-20200529-survey_fixmax	4.SOA_2	398	941163	html-keyboard-response	0.0-398.0	apple	39	707	coconut			Right	false	Right	1
dbbf8220893d497d403bb9cdf49db7a4	.98-20200529-survey_fixmax	4.SOA_2	399	943781	html-keyboard-response	0.0-399.0	cherries	37	1612	orange			Left	false	Left	1
dbbf8220893d497d403bb9cdf49db7a4	.98-20200529-survey_fixmax	4.SOA_2	400	946787	html-keyboard-response	0.0-400.0	bananas			strawberry			Left	false	None	0
dbbf8220893d497d403bb9cdf49db7a4	.98-20200529-survey_fixmax	4.SOA_2	401	949358	html-keyboard-response	0.0-401.0	pear	37	1566	grape			None	true	Left	-1
dbbf8220893d497d403bb9cdf49db7a4	.98-20200529-survey_fixmax	4.SOA_2	402	952365	html-keyboard-response	0.0-402.0	pear			grape			None	true	None	0
dbbf8220893d497d403bb9cdf49db7a4	.98-20200529-survey_fixmax	4.SOA_2	403	954632	html-keyboard-response	0.0-403.0	bananas	37	1262	strawberry			Left	false	Left	1
dbbf8220893d497d403bb9cdf49db7a4	.98-20200529-survey_fixmax	4.SOA_2	404	956496	html-keyboard-response	0.0-404.0	cherries	37	860	orange			Left	false	Left	1
dbbf8220893d497d403bb9cdf49db7a4	.98-20200529-survey_fixmax	4.SOA_2	405	958250	html-keyboard-response	0.0-405.0	melon	39	750	pineapple			Right	false	Right	1
dbbf8220893d497d403bb9cdf49db7a4	.98-20200529-survey_fixmax	4.SOA_2	406	961257	html-keyboard-response	0.0-406.0	lemon			kiwi			None	true	None	0
dbbf8220893d497d403bb9cdf49db7a4	.98-20200529-survey_fixmax	4.SOA_2	407	964264	html-keyboard-response	0.0-407.0	lemon			kiwi			None	true	None	0
dbbf8220893d497d403bb9cdf49db7a4	.98-20200529-survey_fixmax	4.SOA_3	410	974277	html-keyboard-response	0.0-410.0	bananas			strawberry			None	true	None	0
dbbf8220893d497d403bb9cdf49db7a4	.98-20200529-survey_fixmax	4.SOA_3	411	977283	html-keyboard-response	0.0-411.0	bananas			strawberry			None	true	None	0
dbbf8220893d497d403bb9cdf49db7a4	.98-20200529-survey_fixmax	4.SOA_3	412	979202	html-keyboard-response	0.0-412.0	cherries	37	913	orange			Left	false	Left	1
dbbf8220893d497d403bb9cdf49db7a4	.98-20200529-survey_fixmax	4.SOA_3	413	980927	html-keyboard-response	0.0-413.0	apple	39	720	coconut			Right	false	Right	1
dbbf8220893d497d403bb9cdf49db7a4	.98-20200529-survey_fixmax	4.SOA_3	414	982676	html-keyboard-response	0.0-414.0	lemon	39	744.0000000001164	kiwi			Right	false	Right	1
dbbf8220893d497d403bb9cdf49db7a4	.98-20200529-survey_fixmax	4.SOA_3	415	985683	html-keyboard-response	0.0-415.0	pear			grape			None	true	None	0
dbbf8220893d497d403bb9cdf49db7a4	.98-20200529-survey_fixmax	4.SOA_3	416	987489	html-keyboard-response	0.0-416.0	cherries	37	800	orange			Left	false	Left	1
dbbf8220893d497d403bb9cdf49db7a4	.98-20200529-survey_fixmax	4.SOA_3	417	990495	html-keyboard-response	0.0-417.0	pear			grape			None	true	None	0
dbbf8220893d497d403bb9cdf49db7a4	.98-20200529-survey_fixmax	4.SOA_3	418	992352	html-keyboard-response	0.0-418.0	melon	39	850	pineapple			Right	false	Right	1
dbbf8220893d497d403bb9cdf49db7a4	.98-20200529-survey_fixmax	4.SOA_3	419	994063	html-keyboard-response	0.0-419.0	apple	39	705	coconut			Right	false	Right	1
dbbf8220893d497d403bb9cdf49db7a4	.98-20200529-survey_fixmax	4.SOA_3	420	995897	html-keyboard-response	0.0-420.0	lemon	39	829.0000000001164	kiwi			Right	false	Right	1
dbbf8220893d497d403bb9cdf49db7a4	.98-20200529-survey_fixmax	4.SOA_3	421	997586	html-keyboard-response	0.0-421.0	melon	39	683.9999999998836	pineapple			Right	false	Right	1
dbbf8220893d497d403bb9cdf49db7a4	.98-20200529-survey_fixmax	4.SOA_4	424	1007599	html-keyboard-response	0.0-424.0	pear			grape			None	true	None	0
dbbf8220893d497d403bb9cdf49db7a4	.98-20200529-survey_fixmax	4.SOA_4	425	1010605	html-keyboard-response	0.0-425.0	pear			grape			None	true	None	0
dbbf8220893d497d403bb9cdf49db7a4	.98-20200529-survey_fixmax	4.SOA_4	426	1012825	html-keyboard-response	0.0-426.0	lemon	39	1214.0000000001164	kiwi			Right	false	Right	1
dbbf8220893d497d403bb9cdf49db7a4	.98-20200529-survey_fixmax	4.SOA_4	427	1014407	html-keyboard-response	0.0-427.0	lemon	39	576.0000000001164	kiwi			Right	false	Right	1
dbbf8220893d497d403bb9cdf49db7a4	.98-20200529-survey_fixmax	4.SOA_4	428	1016232	html-keyboard-response	0.0-428.0	melon	39	818.9999999998836	pineapple			Right	false	Right	1
dbbf8220893d497d403bb9cdf49db7a4	.98-20200529-survey_fixmax	4.SOA_4	429	1019238	html-keyboard-response	0.0-429.0	cherries			orange			None	true	None	0
dbbf8220893d497d403bb9cdf49db7a4	.98-20200529-survey_fixmax	4.SOA_4	430	1021004	html-keyboard-response	0.0-430.0	bananas	37	761	strawberry			Left	false	Left	1
dbbf8220893d497d403bb9cdf49db7a4	.98-20200529-survey_fixmax	4.SOA_4	431	1022993	html-keyboard-response	0.0-431.0	apple	39	983.0000000001164	coconut			Right	false	Right	1
dbbf8220893d497d403bb9cdf49db7a4	.98-20200529-survey_fixmax	4.SOA_4	432	1024833	html-keyboard-response	0.0-432.0	melon	39	834.0000000001164	pineapple			Right	false	Right	1
dbbf8220893d497d403bb9cdf49db7a4	.98-20200529-survey_fixmax	4.SOA_4	433	1026478	html-keyboard-response	0.0-433.0	apple	39	638.9999999998836	coconut			Right	false	Right	1
dbbf8220893d497d403bb9cdf49db7a4	.98-20200529-survey_fixmax	4.SOA_4	434	1028348	html-keyboard-response	0.0-434.0	bananas	37	865	strawberry			Left	false	Left	1
dbbf8220893d497d403bb9cdf49db7a4	.98-20200529-survey_fixmax	4.SOA_4	435	1031355	html-keyboard-response	0.0-435.0	cherries			orange			None	true	None	0
dbbf8220893d497d403bb9cdf49db7a4	.98-20200529-survey_fixmax	4.SOA_5	438	1040338	html-keyboard-response	0.0-438.0	pear	37	972	grape			Left	false	Left	1
dbbf8220893d497d403bb9cdf49db7a4	.98-20200529-survey_fixmax	4.SOA_5	439	1042401	html-keyboard-response	0.0-439.0	lemon	39	1057	kiwi			Right	false	Right	1
dbbf8220893d497d403bb9cdf49db7a4	.98-20200529-survey_fixmax	4.SOA_5	440	1044322	html-keyboard-response	0.0-440.0	bananas	37	914.9999999998836	strawberry			Left	false	Left	1
dbbf8220893d497d403bb9cdf49db7a4	.98-20200529-survey_fixmax	4.SOA_5	441	1045883	html-keyboard-response	0.0-441.0	bananas	37	556.0000000001164	strawberry			Left	false	Left	1
dbbf8220893d497d403bb9cdf49db7a4	.98-20200529-survey_fixmax	4.SOA_5	442	1047691	html-keyboard-response	0.0-442.0	cherries	37	802	orange			Left	false	Left	1
dbbf8220893d497d403bb9cdf49db7a4	.98-20200529-survey_fixmax	4.SOA_5	443	1050697	html-keyboard-response	0.0-443.0	melon			pineapple			None	true	None	0
dbbf8220893d497d403bb9cdf49db7a4	.98-20200529-survey_fixmax	4.SOA_5	444	1053704	html-keyboard-response	0.0-444.0	apple			coconut			None	true	None	0
dbbf8220893d497d403bb9cdf49db7a4	.98-20200529-survey_fixmax	4.SOA_5	445	1055522	html-keyboard-response	0.0-445.0	lemon	39	812	kiwi			Right	false	Right	1
dbbf8220893d497d403bb9cdf49db7a4	.98-20200529-survey_fixmax	4.SOA_5	446	1057463	html-keyboard-response	0.0-446.0	pear	37	937	grape			Left	false	Left	1
dbbf8220893d497d403bb9cdf49db7a4	.98-20200529-survey_fixmax	4.SOA_5	447	1059075	html-keyboard-response	0.0-447.0	cherries	37	609	orange			Left	false	Left	1
dbbf8220893d497d403bb9cdf49db7a4	.98-20200529-survey_fixmax	4.SOA_5	448	1062081	html-keyboard-response	0.0-448.0	apple			coconut			None	true	None	0
dbbf8220893d497d403bb9cdf49db7a4	.98-20200529-survey_fixmax	4.SOA_5	449	1065089	html-keyboard-response	0.0-449.0	melon			pineapple			None	true	None	0
dbbf8220893d497d403bb9cdf49db7a4	.98-20200529-survey_fixmax	4.SOA_6	452	1074151	html-keyboard-response	0.0-452.0	cherries	37	1050	orange			Left	false	Left	1
dbbf8220893d497d403bb9cdf49db7a4	.98-20200529-survey_fixmax	4.SOA_6	453	1075900	html-keyboard-response	0.0-453.0	lemon	39	744	kiwi			Right	false	Right	1
dbbf8220893d497d403bb9cdf49db7a4	.98-20200529-survey_fixmax	4.SOA_6	454	1077939	html-keyboard-response	0.0-454.0	melon	39	1033	pineapple			Right	false	Right	1
dbbf8220893d497d403bb9cdf49db7a4	.98-20200529-survey_fixmax	4.SOA_6	455	1079787	html-keyboard-response	0.0-455.0	lemon	39	842	kiwi			Right	false	Right	1
dbbf8220893d497d403bb9cdf49db7a4	.98-20200529-survey_fixmax	4.SOA_6	456	1082794	html-keyboard-response	0.0-456.0	apple			coconut			None	true	None	0
dbbf8220893d497d403bb9cdf49db7a4	.98-20200529-survey_fixmax	4.SOA_6	457	1085799	html-keyboard-response	0.0-457.0	apple			coconut			None	true	None	0
dbbf8220893d497d403bb9cdf49db7a4	.98-20200529-survey_fixmax	4.SOA_6	458	1088806	html-keyboard-response	0.0-458.0	bananas			strawberry			None	true	None	0
dbbf8220893d497d403bb9cdf49db7a4	.98-20200529-survey_fixmax	4.SOA_6	459	1090882	html-keyboard-response	0.0-459.0	cherries	37	1069	orange			Left	false	Left	1
dbbf8220893d497d403bb9cdf49db7a4	.98-20200529-survey_fixmax	4.SOA_6	460	1092764	html-keyboard-response	0.0-460.0	pear	37	877	grape			Left	false	Left	1
dbbf8220893d497d403bb9cdf49db7a4	.98-20200529-survey_fixmax	4.SOA_6	461	1095330	html-keyboard-response	0.0-461.0	melon	39	1559.9999999997672	pineapple			Right	false	Right	1
dbbf8220893d497d403bb9cdf49db7a4	.98-20200529-survey_fixmax	4.SOA_6	462	1097198	html-keyboard-response	0.0-462.0	pear	37	863	grape			Left	false	Left	1
dbbf8220893d497d403bb9cdf49db7a4	.98-20200529-survey_fixmax	4.SOA_6	463	1100204	html-keyboard-response	0.0-463.0	bananas			strawberry			None	true	None	0
dbbf8220893d497d403bb9cdf49db7a4	.98-20200529-survey_fixmax	4.SOA_7	466	1110216	html-keyboard-response	0.0-466.0	apple			coconut			None	true	None	0
dbbf8220893d497d403bb9cdf49db7a4	.98-20200529-survey_fixmax	4.SOA_7	467	1112172	html-keyboard-response	0.0-467.0	pear	37	948	grape			Left	false	Left	1
dbbf8220893d497d403bb9cdf49db7a4	.98-20200529-survey_fixmax	4.SOA_7	468	1115178	html-keyboard-response	0.0-468.0	cherries			orange			None	true	None	0
dbbf8220893d497d403bb9cdf49db7a4	.98-20200529-survey_fixmax	4.SOA_7	469	1117273	html-keyboard-response	0.0-469.0	bananas	37	1088	strawberry			Left	false	Left	1
dbbf8220893d497d403bb9cdf49db7a4	.98-20200529-survey_fixmax	4.SOA_7	470	1119056	html-keyboard-response	0.0-470.0	lemon	39	776.9999999997672	kiwi			Right	false	Right	1
dbbf8220893d497d403bb9cdf49db7a4	.98-20200529-survey_fixmax	4.SOA_7	471	1121030	html-keyboard-response	0.0-471.0	bananas	37	970	strawberry			Left	false	Left	1
dbbf8220893d497d403bb9cdf49db7a4	.98-20200529-survey_fixmax	4.SOA_7	472	1124037	html-keyboard-response	0.0-472.0	apple			coconut			None	true	None	0
dbbf8220893d497d403bb9cdf49db7a4	.98-20200529-survey_fixmax	4.SOA_7	473	1125649	html-keyboard-response	0.0-473.0	pear	37	606	grape			Left	false	Left	1
